Accelerometer offset and scaling compensation: Yes
Gyroscope offset and scaling compensation: Yes
Gyroscope temperature compensation: Yes
Magnetometer hard and soft distortion compensation: Yes
Magnetometer temperature compensation: No
Board calibrated: Yes
Board ID: bi
Accelerometer X min / max: -270.0 / 260.0
Accelerometer Y min / max: -253.0 / 264.0
Accelerometer Z min / max: -264.0 / 244.0
Gyroscope offset X,Y,Z: 8.553489685058594,-1.048365831375122,-6.602116107940674
Gyroscope working temperature: 27.0
Gyroscope temperature sensitivity X,Y,Z: 1.6101593971252441,0.3485836088657379,-0.4774838387966156
Magnetometer ellipsoid center: {147.9890594482422,9.695574760437012,-10.700260162353516}
Magnetometer ellipsoid transform:
{{0.9488046765327454,0.008473112247884274,0.0013835603604093194},
{0.008473112247884274,0.9463281035423279,0.014430666342377663},
{0.0013835603604093194,0.014430666342377663,0.9958510994911194}}
Magnetometer working temperature: 28.337764739990234
Magnetometer temperature sensitivity: {-0.5617763996124268,0.4838758409023285,1.628998041152954}
temp,ax,ay,az,mx,my,mz,gx,gy,gz
28.30714225769043,-125.58490753173828,-90.6150894165039,205.60629272460938,-132.6457977294922,-335.0362854003906,248.306640625,-47.65819549560547,-85.40728759765625,-38.773746490478516
28.292858123779297,-115.92453002929688,-91.60541534423828,159.2440948486328,-136.4366912841797,-334.1671447753906,245.32798767089844,-228.63519287109375,-68.40230560302734,-54.78056716918945
28.14285659790039,-120.75471496582031,-106.4603500366211,171.3385772705078,-133.6072235107422,-336.03436279296875,245.3032684326172,-334.3936767578125,-18.350013732910156,-76.85218811035156
28.121429443359375,-128.48301696777344,-116.36363983154297,198.55117797851562,-135.53163146972656,-338.9047546386719,244.26136779785156,-339.35919189453125,10.657453536987305,-88.86241912841797
28.110713958740234,-134.2792510986328,-139.14120483398438,214.6771697998047,-132.6895294189453,-339.7823486328125,247.23863220214844,-216.3419189453125,-6.338810920715332,-83.8675308227539
28.157142639160156,-132.34716796875,-132.2089080810547,216.6929168701172,-136.45068359375,-335.1711730957031,241.3301544189453,-30.41667366027832,-37.35499572753906,-74.8453598022461
28.196428298950195,-130.41510009765625,-115.3733139038086,221.73228454589844,-132.6796875,-338.82159423828125,248.24891662597656,181.52008056640625,-68.36869049072266,-83.82660675048828
28.15357208251953,-123.65283203125,-100.51837921142578,216.6929168701172,-135.48236083984375,-334.1009826660156,249.31277465820312,320.5890808105469,-91.35375213623047,-84.8470687866211
28.18214225769043,-113.9924545288086,-88.63442993164062,212.6614227294922,-135.49082946777344,-335.04730224609375,249.29835510253906,350.5430603027344,-101.36371612548828,-124.83342742919922
28.16428565979004,-110.12830352783203,-85.66344451904297,213.66929626464844,-135.48374938964844,-334.1153869628906,248.31690979003906,292.5718078613281,-98.35749053955078,-156.8419647216797
28.132143020629883,-109.16226196289062,-84.6731185913086,208.62991333007812,-133.5975341796875,-335.933349609375,252.2742156982422,83.62358093261719,-84.34628295898438,-189.85731506347656
28.157142639160156,-109.16226196289062,-83.68278503417969,210.6456756591797,-131.70130920410156,-335.93084716796875,251.28114318847656,-3.4166736602783203,-53.35499572753906,-220.84536743164062
28.14285659790039,-110.12830352783203,-85.66344451904297,214.6771697998047,-129.79660034179688,-334.9820251464844,250.30250549316406,-68.39366912841797,-46.350013732910156,-241.85218811035156
28.18214225769043,-106.26415252685547,-92.59574890136719,207.62203979492188,-131.6815948486328,-334.00933837890625,253.30169677734375,-116.45692443847656,-27.36370849609375,-242.83343505859375
28.167858123779297,-100.46792602539062,-99.52804565429688,191.49606323242188,-128.84918212890625,-334.98797607421875,249.3080291748047,-96.43392944335938,2.6412696838378906,-230.8402557373047
28.149999618530273,-98.53585052490234,-95.56673431396484,187.46456909179688,-127.92579650878906,-337.8184814453125,249.26612854003906,-14.405172348022461,48.64749526977539,-210.84878540039062
28.189285278320312,-98.53585052490234,-96.55706024169922,192.50393676757812,-128.89016723632812,-339.7051696777344,250.2317352294922,67.53157043457031,91.63379669189453,-185.83001708984375
28.292858123779297,-103.36604309082031,-96.55706024169922,197.54330444335938,-133.61172485351562,-337.7971496582031,254.237060546875,137.36480712890625,123.59769439697266,-168.7805633544922
28.22857093811035,-106.26415252685547,-89.62476348876953,202.58267211914062,-132.65858459472656,-336.88568115234375,251.26531982421875,178.46832275390625,146.6201171875,-163.81126403808594
28.135713577270508,-110.12830352783203,-89.62476348876953,203.59054565429688,-130.7694549560547,-337.8150329589844,251.253662109375,180.61782836914062,167.65248107910156,-163.85560607910156
28.15357208251953,-112.06037902832031,-90.6150894165039,207.62203979492188,-129.822021484375,-337.8210144042969,250.25921630859375,161.58908081054688,183.64625549316406,-167.84707641601562
28.157142639160156,-112.06037902832031,-90.6150894165039,207.62203979492188,-133.6129150390625,-336.95184326171875,247.28054809570312,142.58331298828125,196.64500427246094,-170.84536743164062
28.21428680419922,-112.06037902832031,-93.58607482910156,211.65354919433594,-131.70700073242188,-336.84832763671875,253.25840759277344,112.49131774902344,204.62509155273438,-171.81808471679688
28.207141876220703,-112.06037902832031,-93.58607482910156,214.6771697998047,-135.50637817382812,-336.925537109375,250.2653350830078,84.50282287597656,205.62757873535156,-169.82150268554688
28.14642906188965,-113.9924545288086,-97.54739379882812,211.65354919433594,-130.79348754882812,-340.63958740234375,252.2062225341797,68.60057830810547,202.64874267578125,-169.85049438476562
28.246429443359375,-113.02641296386719,-98.5377197265625,207.62203979492188,-134.53216552734375,-334.07806396484375,250.3100128173828,54.43955993652344,198.6138916015625,-174.802734375
28.16071319580078,-111.09434509277344,-101.50870513916016,205.60629272460938,-130.7836151123047,-339.6788024902344,253.21649169921875,22.577577590942383,207.64376831054688,-190.8436737060547
28.125,-108.19622802734375,-102.49903869628906,204.59841918945312,-135.52056884765625,-338.789306640625,252.22816467285156,-26.364919662475586,227.65621948242188,-211.8607177734375
28.125,-109.16226196289062,-103.48936462402344,199.55905151367188,-133.65113830566406,-341.64019775390625,250.19595336914062,-83.36492156982422,248.65621948242188,-237.8607177734375
28.174999237060547,-107.23019409179688,-108.44100952148438,198.55117797851562,-136.51449584960938,-343.55828857421875,250.16293334960938,-132.4454345703125,268.6387939453125,-269.83685302734375
28.27857208251953,-109.16226196289062,-120.32495880126953,203.59054565429688,-132.6782989501953,-338.80718994140625,249.24478149414062,-156.6121826171875,295.6026916503906,-296.7873840332031
28.18214225769043,-109.16226196289062,-118.34429931640625,204.59841918945312,-134.60841369628906,-342.5950012207031,250.18014526367188,-167.45693969726562,316.63629150390625,-317.83343505859375
28.132143020629883,-114.95849609375,-123.29594421386719,208.62991333007812,-136.52296447753906,-344.5046081542969,250.1485137939453,-168.37643432617188,325.6537170410156,-337.8572998046875
28.10357093811035,-119.78868103027344,-126.26692962646484,203.59054565429688,-137.47592163085938,-344.5563659667969,247.15956115722656,-132.33041381835938,328.6636962890625,-349.8709411621094
28.117856979370117,-116.89056396484375,-128.24758911132812,210.6456756591797,-134.6774139404297,-349.3203125,243.108154296875,-78.3534164428711,326.65869140625,-360.8641357421875
28.21428680419922,-118.82264709472656,-128.24758911132812,206.61416625976562,-136.53836059570312,-345.5230712890625,245.15481567382812,-9.508685111999512,321.6250915527344,-370.8180847167969
28.121429443359375,-113.9924545288086,-120.32495880126953,198.55117797851562,-136.55116271972656,-347.3724365234375,248.11351013183594,45.640830993652344,330.657470703125,-378.8624267578125
28.128570556640625,-113.9924545288086,-124.28627014160156,199.55905151367188,-136.5509796142578,-346.5126953125,242.15283203125,90.62933349609375,344.65496826171875,-383.8590087890625
28.14642906188965,-115.92453002929688,-131.21856689453125,196.53543090820312,-137.53662109375,-351.1950988769531,246.0626983642578,174.6005859375,358.64874267578125,-384.8504943847656
28.253570556640625,-115.92453002929688,-133.19923400878906,196.53543090820312,-133.7089080810547,-347.39031982421875,245.13011169433594,264.42803955078125,363.61138916015625,-385.79931640625
28.149999618530273,-113.9924545288086,-129.2379150390625,196.53543090820312,-136.55116271972656,-347.3724365234375,248.11351013183594,321.5948181152344,375.6474914550781,-395.8487854003906
28.157142639160156,-114.95849609375,-130.22824096679688,193.51181030273438,-134.6620330810547,-348.30181884765625,248.10183715820312,344.58331298828125,399.64501953125,-411.8453674316406
28.282142639160156,-113.02641296386719,-130.22824096679688,197.54330444335938,-136.55392456054688,-347.40130615234375,246.12181091308594,335.3820495605469,424.6014404296875,-433.7856750488281
28.125,-120.75471496582031,-126.26692962646484,196.53543090820312,-139.3778533935547,-345.4763488769531,250.1299285888672,295.63507080078125,460.6562194824219,-472.8607177734375
28.14285659790039,-123.65283203125,-125.27659606933594,203.59054565429688,-136.571044921875,-350.1537170410156,252.05360412597656,226.6063232421875,502.6499938964844,-515.8521728515625
28.132143020629883,-123.65283203125,-124.28627014160156,190.48818969726562,-138.4869842529297,-352.0777282714844,251.02613830566406,173.62356567382812,532.6536865234375,-546.8572998046875
28.15357208251953,-129.44906616210938,-131.21856689453125,186.45669555664062,-135.62501525878906,-350.17413330078125,250.0633087158203,165.58908081054688,559.646240234375,-561.8470458984375
28.35357093811035,-127.51698303222656,-134.18955993652344,191.49606323242188,-139.42161560058594,-350.2224426269531,249.06192016601562,209.26705932617188,584.5764770507812,-565.7515869140625
28.16428565979004,-133.31320190429688,-144.0928497314453,197.54330444335938,-138.46865844726562,-350.170654296875,252.05084228515625,288.5718078613281,611.6425170898438,-566.8419799804688
28.15357208251953,-128.48301696777344,-137.16055297851562,189.48031616210938,-137.4971923828125,-347.3520812988281,250.1038360595703,390.5890808105469,635.646240234375,-564.8470458984375
28.157142639160156,-133.31320190429688,-141.12185668945312,182.42520141601562,-137.5015106201172,-348.2550964355469,253.07693481445312,477.58331298828125,655.6449584960938,-562.8453979492188
28.132143020629883,-126.55094909667969,-147.06382751464844,188.47244262695312,-141.31092834472656,-350.15277099609375,255.03427124023438,540.6235961914062,682.6536865234375,-564.8572998046875
28.15357208251953,-125.58490753173828,-144.0928497314453,179.40158081054688,-139.38079833984375,-346.36492919921875,254.098876953125,590.589111328125,716.646240234375,-580.8470458984375
28.110713958740234,-137.1773681640625,-141.12185668945312,184.44094848632812,-143.1562957763672,-344.4773254394531,256.11395263671875,619.6580810546875,759.6611328125,-609.8675537109375
28.132143020629883,-142.00755310058594,-125.27659606933594,192.50393676757812,-139.3851318359375,-347.26800537109375,257.072021484375,611.6235961914062,802.6536865234375,-640.8572998046875
28.15357208251953,-142.9735870361328,-127.25725555419922,201.57479858398438,-143.1479949951172,-344.3907470703125,262.08905029296875,576.589111328125,826.646240234375,-667.8470458984375
28.128570556640625,-139.10943603515625,-125.27659606933594,201.57479858398438,-142.20059204101562,-344.3966979980469,261.0945739746094,528.6293334960938,831.6549682617188,-690.8590087890625
28.117856979370117,-142.9735870361328,-137.16055297851562,202.58267211914062,-144.12083435058594,-347.2237548828125,263.04022216796875,495.6465759277344,826.65869140625,-704.8641357421875
28.135713577270508,-143.9396209716797,-143.10252380371094,192.50393676757812,-145.03990173339844,-343.490234375,260.1090087890625,474.6178283691406,824.6524658203125,-710.8555908203125
28.128570556640625,-147.80377197265625,-135.1798858642578,199.55905151367188,-145.9605255126953,-340.630859375,262.1426086425781,464.62933349609375,829.6549682617188,-720.8590087890625
28.110713958740234,-147.80377197265625,-133.19923400878906,213.66929626464844,-147.87368774414062,-342.5260009765625,263.1068420410156,450.6580810546875,835.6611328125,-725.8675537109375
28.132143020629883,-154.5660400390625,-142.1121826171875,222.7401580810547,-149.8109130859375,-347.2457580566406,265.02362060546875,430.6235656738281,821.6536865234375,-725.8572998046875
28.139286041259766,-153.60000610351562,-144.0928497314453,228.7873992919922,-148.83944702148438,-344.4271545410156,263.07659912109375,431.612060546875,789.6511840820312,-726.8538818359375
28.135713577270508,-157.4641571044922,-147.06382751464844,231.81101989746094,-147.93023681640625,-349.1214599609375,264.9975280761719,428.6178283691406,747.6524658203125,-731.8555908203125
28.132143020629883,-160.36227416992188,-142.1121826171875,229.79527282714844,-148.83807373046875,-344.4127502441406,264.07244873046875,415.6235656738281,701.6536865234375,-749.8572998046875
28.139286041259766,-165.1924591064453,-133.19923400878906,230.8031463623047,-147.88648986816406,-344.3753967285156,266.0655212402344,389.612060546875,656.6511840820312,-781.8538818359375
28.16428565979004,-158.43019104003906,-121.3152847290039,233.82676696777344,-146.02554321289062,-348.1726379394531,264.01885986328125,340.5718078613281,613.6425170898438,-813.8419799804688
28.09642791748047,-155.53207397460938,-113.39265441894531,232.8188934326172,-147.938720703125,-350.06781005859375,264.98309326171875,275.68109130859375,560.6661376953125,-851.8743896484375
28.121429443359375,-155.53207397460938,-113.39265441894531,232.8188934326172,-147.9414825439453,-350.0966491699219,262.99139404296875,198.64083862304688,511.657470703125,-879.8624267578125
28.139286041259766,-147.80377197265625,-118.34429931640625,223.74803161621094,-145.10647583007812,-351.9061584472656,266.9500732421875,132.61209106445312,471.6512451171875,-899.8538818359375
28.125,-143.9396209716797,-122.30561065673828,214.6771697998047,-145.14588928222656,-355.7491760253906,262.908935546875,103.63507843017578,438.6562194824219,-911.8607177734375
28.128570556640625,-135.2452850341797,-124.28627014160156,217.70079040527344,-146.0862274169922,-354.81134033203125,262.9219970703125,110.62933349609375,410.65496826171875,-907.8590087890625
28.14642906188965,-131.38113403320312,-124.28627014160156,217.70079040527344,-142.3136749267578,-357.58758544921875,264.8759460449219,149.6005859375,392.64874267578125,-899.8504638671875
28.121429443359375,-128.48301696777344,-119.33462524414062,225.76377868652344,-141.38043212890625,-359.4573059082031,265.84429931640625,199.64083862304688,366.657470703125,-887.8624267578125
28.110713958740234,-123.65283203125,-115.3733139038086,228.7873992919922,-139.4814453125,-359.4259338378906,266.8429260253906,234.6580810546875,333.66119384765625,-883.8675537109375
28.15357208251953,-112.06037902832031,-108.44100952148438,231.81101989746094,-135.66650390625,-357.4705505371094,268.8690185546875,243.58908081054688,309.646240234375,-887.8470458984375
28.174999237060547,-112.06037902832031,-104.47969055175781,227.77952575683594,-138.5692901611328,-363.23162841796875,264.7948913574219,216.5545654296875,302.6387939453125,-890.8368530273438
28.125,-113.02641296386719,-99.52804565429688,227.77952575683594,-134.76144409179688,-362.2081298828125,267.8023986816406,158.63507080078125,313.6562194824219,-890.8607177734375
28.22857093811035,-113.9924545288086,-100.51837921142578,231.81101989746094,-134.7825469970703,-364.14410400390625,264.7859802246094,134.46832275390625,304.6201171875,-870.811279296875
28.217857360839844,-115.92453002929688,-99.52804565429688,244.91339111328125,-128.1692657470703,-367.8123474121094,268.7213439941406,196.48556518554688,274.62384033203125,-828.81640625
28.260713577270508,-115.92453002929688,-99.52804565429688,252.97637939453125,-128.15231323242188,-365.919677734375,268.7502136230469,321.41656494140625,223.60890197753906,-791.7958984375
28.22857093811035,-113.02641296386719,-98.5377197265625,249.9527587890625,-126.2336196899414,-363.9668273925781,271.7693786621094,451.46832275390625,156.6201171875,-754.811279296875
28.22142791748047,-109.16226196289062,-98.5377197265625,245.9212646484375,-127.1922836303711,-364.9360656738281,270.7577209472656,568.4798583984375,95.62259674072266,-725.814697265625
28.132143020629883,-104.33207702636719,-97.54739379882812,239.87400817871094,-121.48267364501953,-363.852294921875,276.7555847167969,674.6235961914062,42.65372085571289,-651.8572998046875
28.10357093811035,-102.4000015258789,-103.48936462402344,241.8897705078125,-122.41885375976562,-362.8711242675781,279.7561950683594,854.6696166992188,-0.3363208770751953,-615.8709716796875
28.14285659790039,-98.53585052490234,-96.55706024169922,237.85826110839844,-119.5302505493164,-358.9738464355469,285.79315185546875,896.6063232421875,-30.350013732910156,-578.8521728515625
28.10714340209961,-98.53585052490234,-95.56673431396484,227.77952575683594,-117.60721588134766,-356.117919921875,285.8392028808594,922.6638793945312,-51.33756637573242,-549.8692626953125
28.110713958740234,-105.29811096191406,-94.57640838623047,215.68504333496094,-114.763916015625,-357.8408203125,295.7730407714844,954.6580810546875,-47.338809967041016,-527.8675537109375
28.299999237060547,-113.02641296386719,-84.6731185913086,241.8897705078125,-114.71031188964844,-352.13397216796875,297.851318359375,1001.3533325195312,-57.40479278564453,-500.77716064453125
28.292858123779297,-120.75471496582031,-80.71179962158203,245.9212646484375,-113.74610900878906,-351.1070556640625,302.84637451171875,1040.3648681640625,-97.40230560302734,-473.78057861328125
28.139286041259766,-127.51698303222656,-68.8278579711914,254.99212646484375,-110.87860107421875,-349.14569091796875,305.866943359375,1056.612060546875,-160.34877014160156,-442.8539123535156
28.132143020629883,-137.1773681640625,-71.79884338378906,257.00787353515625,-107.04119110107422,-345.2398681640625,311.9053039550781,1030.6236572265625,-244.34628295898438,-414.8572998046875
28.14285659790039,-142.9735870361328,-77.74081420898438,251.968505859375,-106.06991577148438,-343.2810363769531,315.9189758300781,984.6063232421875,-326.3500061035156,-397.8522033691406
28.11428451538086,-135.2452850341797,-79.72147369384766,244.91339111328125,-103.17559051513672,-338.46624755859375,319.9786682128906,936.65234375,-401.3400573730469,-394.8658447265625
28.14285659790039,-122.68679809570312,-79.72147369384766,233.82676696777344,-100.31932067871094,-337.4800720214844,320.99310302734375,893.6063232421875,-465.3500061035156,-396.8522033691406
28.125,-111.09434509277344,-80.71179962158203,227.77952575683594,-97.43071746826172,-333.582763671875,327.0300598144531,863.6351318359375,-508.3437805175781,-398.8607177734375
28.14642906188965,-106.26415252685547,-84.6731185913086,224.7559051513672,-93.59191131591797,-329.66253662109375,334.06427001953125,853.6005859375,-532.3512573242188,-406.8504943847656
28.171428680419922,-102.4000015258789,-87.64410400390625,216.6929168701172,-90.76107025146484,-331.5153503417969,335.035400390625,850.5603637695312,-540.3599853515625,-404.83856201171875
28.125,-100.46792602539062,-85.66344451904297,214.6771697998047,-90.69898223876953,-324.8621826171875,337.1281433105469,863.6351318359375,-531.3438110351562,-388.8607177734375
28.08928680419922,-106.26415252685547,-74.76982879638672,229.79527282714844,-84.97106170654297,-321.871337890625,344.15069580078125,909.692626953125,-530.3313598632812,-355.8777770996094
28.117856979370117,-108.19622802734375,-70.80850982666016,261.03936767578125,-81.12655639648438,-317.0336608886719,349.2076416015625,972.6466064453125,-574.34130859375,-294.8641357421875
28.11428451538086,-116.89056396484375,-72.78916931152344,268.094482421875,-80.1552734375,-315.0748291015625,353.2212829589844,1030.65234375,-651.340087890625,-224.86582946777344
28.15357208251953,-112.06037902832031,-61.89555358886719,265.07086181640625,-76.32494354248047,-312.1009216308594,360.2410888671875,1069.589111328125,-730.353759765625,-160.84707641601562
28.196428298950195,-110.12830352783203,-57.93423843383789,252.97637939453125,-72.4577865600586,-304.453125,363.349609375,1083.5201416015625,-805.3687133789062,-109.82660675048828
28.117856979370117,-100.46792602539062,-50.0116081237793,250.96063232421875,-66.73833465576172,-302.4085998535156,370.35772705078125,1056.6466064453125,-866.34130859375,-74.86412048339844
28.15357208251953,-100.46792602539062,-45.05996322631836,247.93701171875,-65.7725830078125,-300.5074768066406,370.3879699707031,992.589111328125,-907.353759765625,-48.84707260131836
28.242856979370117,-97.56980895996094,-30.20503044128418,232.8188934326172,-61.92531204223633,-295.64093017578125,377.4366149902344,892.4453125,-931.3848876953125,-26.804439544677734
28.125,-106.26415252685547,-27.23404312133789,232.8188934326172,-54.3181037902832,-294.5402526855469,383.4372253417969,749.6351318359375,-949.3438110351562,-4.860714435577393
28.117856979370117,-96.60377502441406,-17.33075523376465,247.93701171875,-51.403900146484375,-286.9442138671875,383.55682373046875,578.6466064453125,-971.34130859375,18.135873794555664
28.121429443359375,-98.53585052490234,-13.369439125061035,248.94488525390625,-47.62562942504883,-288.8029479980469,383.53350830078125,393.64080810546875,-998.3425903320312,46.13758087158203
28.117856979370117,-81.14717102050781,-1.4854933023452759,251.968505859375,-45.71677780151367,-287.8108215332031,385.5423889160156,196.64657592773438,-1023.34130859375,81.13587951660156
28.117856979370117,-66.65660095214844,4.456480026245117,261.03936767578125,-40.986934661865234,-289.6322326660156,387.51214599609375,-22.353416442871094,-1054.34130859375,127.13587951660156
28.15357208251953,-64.72453308105469,-0.4951644241809845,249.9527587890625,-35.2998161315918,-290.4989013671875,389.4977111816406,-270.4109191894531,-1082.353759765625,184.15292358398438
28.121429443359375,-65.69056701660156,-8.417795181274414,235.84251403808594,-34.42570877075195,-298.1331787109375,384.4044189453125,-488.35919189453125,-1096.342529296875,261.1375732421875
28.157142639160156,-71.4867935180664,-27.23404312133789,227.77952575683594,-31.577913284301758,-298.09332275390625,385.4044189453125,-670.4166259765625,-1078.35498046875,333.1546325683594
28.15357208251953,-79.21509552001953,-50.0116081237793,213.66929626464844,-26.891647338867188,-303.80108642578125,380.3454895019531,-815.410888671875,-1062.353759765625,393.1529235839844
28.10714340209961,-79.21509552001953,-50.0116081237793,213.66929626464844,-22.17442512512207,-306.6121520996094,379.3132629394531,-898.3361206054688,-1101.337646484375,445.1307678222656
28.128570556640625,-86.94339752197266,-75.7601547241211,214.6771697998047,-25.0927734375,-314.25146484375,376.2060852050781,-865.3706665039062,-1082.3450927734375,495.1409912109375
28.16071319580078,-99.50189208984375,-100.51837921142578,210.6456756591797,-22.25483512878418,-315.1723937988281,376.19580078125,-712.4224243164062,-1047.3563232421875,539.1563110351562
28.11428451538086,-104.33207702636719,-115.3733139038086,209.63778686523438,-16.58172035217285,-317.0430908203125,374.1835632324219,-462.3476867675781,-1034.340087890625,581.1341552734375
28.082141876220703,-104.33207702636719,-116.36363983154297,213.66929626464844,-16.547828674316406,-313.2577819824219,374.24127197265625,-158.2958984375,-1010.328857421875,617.1188354492188
28.125,-109.16226196289062,-107.45068359375,224.7559051513672,-16.53382110595703,-312.2536926269531,378.2391357421875,151.63507080078125,-995.3438110351562,647.1392822265625
28.117856979370117,-108.19622802734375,-87.64410400390625,239.87400817871094,-12.721654891967773,-310.3271484375,378.2735290527344,423.6465759277344,-994.34130859375,675.1358642578125
28.139286041259766,-101.4339599609375,-72.78916931152344,252.97637939453125,-9.869707107543945,-310.2440185546875,382.2610778808594,644.6121215820312,-1012.3488159179688,706.1461181640625
28.132143020629883,-95.63774108886719,-59.914894104003906,250.96063232421875,-8.875768661499023,-305.4750061035156,384.3263244628906,817.6235961914062,-1030.3463134765625,733.1427001953125
28.11428451538086,-82.11320495605469,-42.0889778137207,247.93701171875,-6.923171043395996,-299.73681640625,387.4032287597656,925.65234375,-1033.340087890625,757.1341552734375
28.08571434020996,-78.24905395507812,-41.09864807128906,241.8897705078125,-2.1468100547790527,-296.7833251953125,392.43267822265625,978.6983642578125,-1028.330078125,763.1205444335938
28.092857360839844,-66.65660095214844,-36.147003173828125,236.8503875732422,-3.958477020263672,-288.1822814941406,399.53076171875,1014.6868286132812,-1027.3326416015625,774.1239624023438
28.139286041259766,-59.89434051513672,-38.12765884399414,218.7086639404297,-0.16758054494857788,-289.05145263671875,402.5094299316406,1055.612060546875,-1020.3488159179688,787.1461181640625
28.100000381469727,-56.030189514160156,-34.166343688964844,221.73228454589844,0.8488373160362244,-282.33209228515625,408.5869140625,1091.6754150390625,-1004.3350830078125,801.1273193359375
28.10714340209961,-64.72453308105469,-29.21470069885254,213.66929626464844,2.8325612545013428,-272.8374328613281,409.7298278808594,1110.663818359375,-989.3375854492188,823.1307373046875
28.14285659790039,-71.4867935180664,-24.263057708740234,212.6614227294922,3.8207926750183105,-268.9859313964844,413.7723388671875,1086.6063232421875,-973.3500366210938,847.1478271484375
28.121429443359375,-74.38490295410156,-9.408123970031738,209.63778686523438,7.671000957489014,-263.2307434082031,416.8520202636719,1016.640869140625,-965.3425903320312,873.1375732421875
28.15357208251953,-67.62264251708984,-2.4758222103118896,209.63778686523438,9.603885650634766,-259.4140625,417.9083557128906,887.589111328125,-967.353759765625,892.1529541015625
28.303571701049805,-52.166038513183594,6.437137603759766,202.58267211914062,12.462924003601074,-258.3990478515625,420.9145202636719,718.3475952148438,-967.4060668945312,894.2245483398438
28.092857360839844,-44.43773651123047,15.350096702575684,191.49606323242188,12.471397399902344,-257.45269775390625,420.9289245605469,504.6867980957031,-955.3326416015625,889.1239624023438
28.10714340209961,-42.50566101074219,1.4854933023452759,188.47244262695312,14.363301277160645,-258.3532409667969,422.9089660644531,237.663818359375,-947.3375854492188,883.1307373046875
28.09642791748047,-43.47169876098633,-10.398452758789062,192.50393676757812,18.178403854370117,-255.53807067871094,418.9743957519531,8.681087493896484,-952.3338623046875,868.1256103515625
28.157142639160156,-49.26792526245117,-22.282398223876953,190.48818969726562,22.898391723632812,-258.3202819824219,419.9338684082031,-133.4166717529297,-941.3550415039062,852.1546020507812
28.128570556640625,-53.132076263427734,-34.166343688964844,201.57479858398438,21.932640075683594,-260.2214050292969,419.90362548828125,-210.37066650390625,-926.3450317382812,839.1409912109375
28.132143020629883,-49.26792526245117,-41.09864807128906,204.59841918945312,23.82177734375,-261.1507568359375,419.8919677734375,-232.37643432617188,-912.3463134765625,823.1427001953125
28.167858123779297,-35.7433967590332,-46.05029296875,196.53543090820312,26.672513961791992,-260.2223205566406,416.9229736328125,-223.43392944335938,-893.3587646484375,806.1597290039062
28.08928680419922,-22.218868255615234,-57.93423843383789,190.48818969726562,27.576013565063477,-265.8341064453125,420.8211975097656,-182.30740356445312,-880.3313598632812,792.1222534179688
28.10357093811035,-13.524528503417969,-58.92456817626953,187.46456909179688,28.529138565063477,-264.9225769042969,417.84942626953125,-79.33041381835938,-861.3363647460938,777.1290283203125
28.11428451538086,-11.592453002929688,-59.914894104003906,179.40158081054688,31.382644653320312,-263.9652404785156,416.8721618652344,51.65233612060547,-826.340087890625,765.1341552734375
28.110713958740234,-7.728302001953125,-47.040618896484375,183.43307495117188,32.34268569946289,-262.98162841796875,418.87969970703125,150.6580810546875,-795.3388671875,756.1324462890625
28.092857360839844,-11.592453002929688,-31.195358276367188,186.45669555664062,36.15623474121094,-261.0406188964844,419.9099426269531,182.68682861328125,-761.3326416015625,747.1239624023438
28.08928680419922,-10.626415252685547,-25.253385543823242,176.37794494628906,34.224735260009766,-264.8428955078125,419.8494567871094,157.69259643554688,-732.3313598632812,730.1222534179688
28.125,-4.830188751220703,-17.33075523376465,188.47244262695312,37.095184326171875,-261.992919921875,418.90106201171875,70.63507843017578,-691.3438110351562,723.1392822265625
28.075000762939453,-4.830188751220703,-22.282398223876953,188.47244262695312,36.11957931518555,-264.85479736328125,417.8605041503906,-28.284412384033203,-644.326416015625,719.1154174804688
28.078571319580078,3.8641510009765625,-30.20503044128418,197.54330444335938,38.9646110534668,-264.84381103515625,416.8688049316406,-133.2901611328125,-611.32763671875,712.1171264648438
28.125,3.8641510009765625,-40.10831832885742,192.50393676757812,37.04573059082031,-267.65643310546875,419.8103332519531,-213.36492919921875,-592.3438110351562,704.1392822265625
28.08928680419922,8.694339752197266,-43.07930374145508,196.53543090820312,39.90217590332031,-265.8105163574219,414.8640441894531,-240.30740356445312,-561.3313598632812,690.1222534179688
28.082141876220703,15.45660400390625,-49.021278381347656,191.49606323242188,36.073062896728516,-269.6297302246094,414.8008117675781,-228.2958984375,-530.328857421875,673.1188354492188
28.082141876220703,26.083019256591797,-61.89555358886719,212.6614227294922,38.918094635009766,-269.6187438964844,413.8091125488281,-209.2958984375,-508.328857421875,652.1188354492188
28.132143020629883,28.015094757080078,-69.81818389892578,216.6929168701172,36.04902267456055,-272.45428466796875,415.75335693359375,-152.37643432617188,-478.3462829589844,621.1427001953125
28.125,31.87924575805664,-89.62476348876953,242.89764404296875,37.95649337768555,-271.4765625,416.76641845703125,-31.364919662475586,-439.3437805175781,601.1392822265625
28.08928680419922,20.286792755126953,-86.65377044677734,250.96063232421875,37.02186965942383,-269.6212463378906,414.80218505859375,476.69256591796875,-437.3313293457031,609.1222534179688
28.14285659790039,4.830188751220703,-61.89555358886719,251.968505859375,41.812408447265625,-264.803955078125,417.8688049316406,739.6063232421875,-421.3500061035156,626.1478271484375
28.092857360839844,6.762264251708984,-45.05996322631836,247.93701171875,39.96978759765625,-259.0996398925781,420.940185546875,884.6868286132812,-430.33258056640625,622.1239624023438
28.11428451538086,15.45660400390625,-25.253385543823242,233.82676696777344,40.95231246948242,-256.1656188964844,426.9599609375,876.65234375,-456.3400573730469,594.1341552734375
28.135713577270508,22.218868255615234,-11.388781547546387,221.73228454589844,40.0176887512207,-254.3102569580078,424.9957580566406,731.6178588867188,-480.3475341796875,549.1444091796875
28.125,18.354717254638672,-13.369439125061035,211.65354919433594,41.93500900268555,-252.37181091308594,427.0190734863281,519.6351318359375,-497.3437805175781,503.1392822265625
28.110713958740234,19.320755004882812,-13.369439125061035,202.58267211914062,41.011627197265625,-249.5413055419922,427.06097412109375,275.6580810546875,-520.3388671875,457.1324462890625
28.117856979370117,19.320755004882812,-13.369439125061035,202.58267211914062,41.961814880371094,-249.5183868408203,428.0582275390625,26.646583557128906,-503.34130859375,402.1358642578125
28.14285659790039,18.354717254638672,-11.388781547546387,188.47244262695312,46.72001266479492,-247.61224365234375,426.102294921875,-210.3936767578125,-488.3500061035156,349.1477966308594
28.128570556640625,28.98113250732422,-26.243715286254883,189.48031616210938,48.57525634765625,-252.3269500732422,426.0329284667969,-345.37066650390625,-476.34503173828125,285.1409912109375
28.11428451538086,31.87924575805664,-51.99226379394531,191.49606323242188,49.493106842041016,-255.21517944335938,422.0075988769531,-339.3476867675781,-457.3400573730469,237.13417053222656
28.117856979370117,40.573585510253906,-64.86653900146484,199.55905151367188,50.44053268432617,-255.22113037109375,421.0131530761719,-219.35342407226562,-427.34130859375,212.1358642578125
28.092857360839844,44.43773651123047,-67.8375244140625,200.56692504882812,52.33381652832031,-256.1072082519531,423.989013671875,-52.31316375732422,-401.33258056640625,200.12393188476562
28.082141876220703,47.33584976196289,-53.972923278808594,195.52755737304688,52.315486907958984,-258.0143127441406,422.9643249511719,78.70408630371094,-372.328857421875,206.1188201904297
28.071428298950195,53.132076263427734,-41.09864807128906,192.50393676757812,56.14459991455078,-254.195068359375,423.0275573730469,128.72134399414062,-345.3251037597656,228.11370849609375
28.100000381469727,50.23396301269531,-31.195358276367188,173.3543243408203,55.2141227722168,-252.29647827148438,424.0509033203125,100.67533111572266,-312.3350830078125,250.12734985351562
28.125,46.36981201171875,-29.21470069885254,177.38583374023438,58.98392105102539,-255.10159301757812,424.0131530761719,39.63508224487305,-262.3437805175781,260.1392822265625
28.125,44.43773651123047,-25.253385543823242,174.36219787597656,56.133358001708984,-255.1702880859375,421.0214538574219,-43.36491775512695,-203.34378051757812,269.1392822265625
28.09642791748047,48.30188751220703,-28.22437286376953,183.43307495117188,53.26567459106445,-257.99139404296875,423.9615478515625,-125.31891632080078,-159.33383178710938,273.1256408691406
28.110713958740234,48.30188751220703,-32.18568801879883,185.44882202148438,56.088226318359375,-259.9307861328125,418.95758056640625,-180.3419189453125,-120.33881378173828,281.1324462890625
28.117856979370117,54.098114013671875,-43.07930374145508,184.44094848632812,55.152042388916016,-258.94964599609375,421.95819091796875,-188.35342407226562,-73.34130096435547,285.1358642578125
28.10714340209961,56.030189514160156,-37.137332916259766,186.45669555664062,51.34126281738281,-260.86175537109375,422.9196472167969,-174.336181640625,-12.337566375732422,297.1307678222656
28.139286041259766,60.86037826538086,-46.05029296875,198.55117797851562,52.285919189453125,-260.8965759277344,419.9334716796875,-150.38790893554688,34.65122985839844,312.1460876464844
28.117856979370117,53.132076263427734,-49.021278381347656,215.68504333496094,46.56058120727539,-264.71832275390625,420.8633117675781,-82.3534164428711,85.65869903564453,333.1358642578125
28.135713577270508,45.40377426147461,-48.030948638916016,233.82676696777344,47.55313491821289,-259.9637451171875,421.93267822265625,1.6178302764892578,124.65247344970703,356.1444091796875
28.14285659790039,42.50566101074219,-46.05029296875,240.8818817138672,44.671443939208984,-263.7889099121094,420.8749694824219,62.60633087158203,134.64999389648438,374.1477966308594
28.135713577270508,42.50566101074219,-47.040618896484375,243.905517578125,41.84335708618164,-261.9072570800781,421.8955383300781,86.61782836914062,120.65247344970703,374.1444091796875
28.178571701049805,45.40377426147461,-48.030948638916016,235.84251403808594,44.681297302246094,-262.8281555175781,421.88525390625,78.54882049560547,105.63753509521484,353.16485595703125
28.128570556640625,53.132076263427734,-45.05996322631836,237.85826110839844,41.820709228515625,-264.7173767089844,423.84393310546875,58.62933349609375,103.65496063232422,328.1409912109375
28.08571434020996,55.064151763916016,-52.98259353637695,236.8503875732422,39.94574737548828,-261.9241943359375,421.89276123046875,17.69833755493164,98.6698989868164,299.1205139160156
28.14285659790039,49.26792526245117,-57.93423843383789,237.85826110839844,39.9471321105957,-261.9097595214844,422.88861083984375,2.6063289642333984,94.64997863769531,268.1477966308594
28.132143020629883,41.53962326049805,-59.914894104003906,244.91339111328125,36.133583068847656,-263.8507385253906,421.8583679199219,41.62358093261719,98.65371704101562,242.14268493652344
28.092857360839844,41.53962326049805,-58.92456817626953,258.0157470703125,35.211585998535156,-261.00579833984375,422.8961181640625,84.68683624267578,97.66741180419922,226.12393188476562
28.10357093811035,43.47169876098633,-54.96324920654297,262.0472412109375,33.3309211730957,-259.1300964355469,422.9222106933594,119.6695785522461,90.6636734008789,210.12904357910156
28.121429443359375,43.47169876098633,-46.05029296875,259.02362060546875,33.33369064331055,-259.1012268066406,424.9139099121094,134.64083862304688,80.6574478149414,197.1375732421875
28.117856979370117,42.50566101074219,-59.914894104003906,264.06298828125,31.441783905029297,-258.2007141113281,422.9338684082031,118.6465835571289,67.65869903564453,184.1358642578125
28.092857360839844,34.77735900878906,-60.90522384643555,260.031494140625,31.42622184753418,-260.07891845703125,423.90087890625,107.68683624267578,53.667415618896484,164.12393188476562
28.121429443359375,31.87924575805664,-61.89555358886719,273.13385009765625,30.46894645690918,-261.0337219238281,423.8850402832031,122.64083099365234,39.65745544433594,147.1375732421875
28.08571434020996,36.709434509277344,-48.030948638916016,265.07086181640625,33.34925079345703,-257.2229919433594,423.9469299316406,136.69833374023438,21.669904708862305,123.12052917480469
28.125,38.641510009765625,-41.09864807128906,254.99212646484375,30.521167755126953,-255.3413543701172,424.9674987792969,118.63507843017578,11.656208992004395,98.13928985595703
28.157142639160156,48.30188751220703,-37.137332916259766,259.02362060546875,31.437461853027344,-259.1037292480469,425.906982421875,52.58332443237305,9.645004272460938,81.1546401977539
28.100000381469727,49.26792526245117,-44.06963348388672,250.96063232421875,29.539852142333984,-259.1206970214844,425.90423583984375,-43.32466506958008,20.66492462158203,72.12734985351562
28.110713958740234,42.50566101074219,-52.98259353637695,254.99212646484375,30.488658905029297,-259.1122131347656,425.9056091308594,-111.3419189453125,26.661190032958984,60.13246536254883
28.128570556640625,37.675472259521484,-58.92456817626953,262.0472412109375,27.62961769104004,-260.12725830078125,422.89947509765625,-118.37066650390625,26.654964447021484,56.1409912109375
28.08571434020996,35.7433967590332,-64.86653900146484,271.11810302734375,29.532936096191406,-259.19287109375,420.92498779296875,-75.30166625976562,13.669903755187988,47.12052536010742
28.121429443359375,31.87924575805664,-56.94390869140625,256.0,29.5272274017334,-260.1103210449219,422.9022521972656,-12.359169960021973,7.657453536987305,35.13758087158203
28.139286041259766,37.675472259521484,-49.021278381347656,264.06298828125,31.42622184753418,-260.07891845703125,423.90087890625,53.61207962036133,-5.348771095275879,28.146106719970703
28.10357093811035,32.84528350830078,-41.09864807128906,252.97637939453125,27.657804489135742,-257.2593994140625,424.9344787597656,91.66958618164062,-13.336320877075195,19.129053115844727
28.082141876220703,34.77735900878906,-32.18568801879883,250.96063232421875,29.55264663696289,-257.2713317871094,422.9455261230469,82.70408630371094,-13.328851699829102,7.118821144104004
28.092857360839844,37.675472259521484,-28.22437286376953,251.968505859375,27.623912811279297,-261.0447082519531,424.8767395019531,34.68683624267578,-11.332586288452148,-3.8760619163513184
28.100000381469727,36.709434509277344,-33.17601776123047,254.99212646484375,31.434696197509766,-259.1325988769531,423.915283203125,-29.324665069580078,-5.335076332092285,-10.872652053833008
28.078571319580078,34.77735900878906,-34.166343688964844,253.9842529296875,27.626680374145508,-261.015869140625,426.8684387207031,-83.2901611328125,3.672393560409546,-14.882883071899414
28.149999618530273,32.84528350830078,-29.21470069885254,250.96063232421875,30.480186462402344,-260.05853271484375,425.89117431640625,-110.4051742553711,0.6474947929382324,-11.848777770996094
28.139286041259766,32.84528350830078,-29.21470069885254,250.96063232421875,28.58257293701172,-260.0754699707031,425.888427734375,-114.38792419433594,-3.3487708568573,0.14610671997070312
28.14285659790039,34.77735900878906,-35.156673431396484,253.9842529296875,27.62823486328125,-260.1416931152344,421.90362548828125,-96.39366912841797,-8.350015640258789,13.147811889648438
28.14285659790039,37.675472259521484,-39.11798858642578,254.99212646484375,26.663869857788086,-262.0284118652344,422.8692321777344,-63.39366912841797,-12.350015640258789,28.147811889648438
28.071428298950195,39.607547760009766,-48.030948638916016,258.0157470703125,29.54555892944336,-258.2032470703125,423.9269714355469,-12.27865982055664,-16.325115203857422,35.113704681396484
28.125,41.53962326049805,-49.021278381347656,264.06298828125,26.689289093017578,-259.1894226074219,422.91253662109375,63.63507843017578,-18.34379005432129,40.139286041259766
28.11428451538086,35.7433967590332,-37.137332916259766,264.06298828125,31.44731903076172,-258.14300537109375,426.9172668457031,140.65234375,-16.340055465698242,41.1341667175293
28.16428565979004,33.81132125854492,-25.253385543823242,259.02362060546875,26.682199478149414,-260.1213073730469,423.8939514160156,179.57183837890625,-25.357484817504883,42.158042907714844
28.15357208251953,38.641510009765625,-17.33075523376465,253.9842529296875,27.656421661376953,-257.2738342285156,423.9386291503906,164.58908081054688,-33.3537483215332,43.15292739868164
28.16428565979004,38.641510009765625,-16.340425491333008,252.97637939453125,27.656421661376953,-257.2738342285156,423.9386291503906,108.57182312011719,-42.35748291015625,50.158042907714844
28.110713958740234,35.7433967590332,-25.253385543823242,250.96063232421875,28.59952163696289,-258.1828308105469,425.9172668457031,34.658084869384766,-41.338809967041016,60.13246536254883
28.08928680419922,39.607547760009766,-44.06963348388672,243.905517578125,26.68790626525879,-259.203857421875,421.91668701171875,-24.307415008544922,-39.33134078979492,65.12223815917969
28.100000381469727,35.7433967590332,-58.92456817626953,246.92913818359375,26.67787742614746,-261.02435302734375,426.8670654296875,-20.324665069580078,-36.33507537841797,58.127349853515625
28.117856979370117,30.9132080078125,-56.94390869140625,242.89764404296875,25.7686710357666,-256.33001708984375,424.9461364746094,58.646583557128906,-38.34130096435547,54.1358757019043
28.08571434020996,28.98113250732422,-46.05029296875,247.93701171875,27.684608459472656,-254.40599060058594,425.9736022949219,151.69833374023438,-36.33009719848633,51.12052536010742
28.08571434020996,34.77735900878906,-34.166343688964844,242.89764404296875,27.663339614868164,-257.2016906738281,428.9178771972656,207.69833374023438,-42.33009719848633,45.12052536010742
28.11428451538086,39.607547760009766,-18.321083068847656,238.8661346435547,25.771438598632812,-256.3011779785156,426.9378356933594,206.65234375,-45.34005355834961,38.13417053222656
28.174999237060547,46.36981201171875,-30.20503044128418,236.8503875732422,24.832489013671875,-255.34889221191406,427.9467468261719,160.5545654296875,-42.3612174987793,42.16315841674805
28.189285278320312,47.33584976196289,-44.06963348388672,238.8661346435547,25.78838348388672,-254.4084930419922,426.9667053222656,118.53157043457031,-35.3661994934082,41.169979095458984
28.14642906188965,42.50566101074219,-46.05029296875,235.84251403808594,25.83213233947754,-249.6624298095703,428.0346984863281,127.60057830810547,-26.351259231567383,36.14951705932617
28.139286041259766,38.641510009765625,-42.0889778137207,232.8188934326172,27.725418090820312,-250.54852294921875,431.0105895996094,163.61209106445312,-18.348770141601562,36.1461067199707
28.132143020629883,40.573585510253906,-31.195358276367188,235.84251403808594,28.674222946166992,-250.5400390625,431.011962890625,194.62356567382812,-8.346281051635742,38.142696380615234
28.075000762939453,45.40377426147461,-25.253385543823242,238.8661346435547,23.948530197143555,-248.67535400390625,432.0297546386719,187.715576171875,3.673638105392456,40.11540985107422
28.082141876220703,46.36981201171875,-27.23404312133789,243.905517578125,25.85184669494629,-247.7409210205078,430.0552673339844,148.7041015625,11.671148300170898,40.11882019042969
28.110713958740234,45.40377426147461,-28.22437286376953,247.93701171875,23.94144058227539,-249.60723876953125,433.01116943359375,97.6580810546875,18.661190032958984,31.132463455200195
28.14285659790039,43.47169876098633,-38.12765884399414,251.968505859375,28.70673179626465,-246.76918029785156,430.0738525390625,18.6063289642334,18.649986267089844,19.147811889648438
28.14285659790039,41.53962326049805,-38.12765884399414,240.8818817138672,23.964092254638672,-246.79710388183594,431.0627746582031,2.6063289642333984,11.649984359741211,12.147811889648438
28.10357093811035,45.40377426147461,-38.12765884399414,247.93701171875,25.844755172729492,-248.67282104492188,431.03668212890625,6.669585227966309,12.663679122924805,5.129053115844727
28.167858123779297,42.50566101074219,-42.0889778137207,242.89764404296875,26.797883987426758,-247.7613067626953,428.06494140625,25.56607437133789,13.64126968383789,-2.8402504920959473
28.10714340209961,46.36981201171875,-40.10831832885742,257.00787353515625,27.736658096313477,-249.57334899902344,433.0167236328125,62.66383361816406,12.662433624267578,-6.869241237640381
28.08928680419922,42.50566101074219,-42.0889778137207,262.0472412109375,27.76069450378418,-246.74879455566406,432.06414794921875,100.69258117675781,9.668658256530762,-4.877767086029053
28.110713958740234,35.7433967590332,-41.09864807128906,244.91339111328125,26.793561935424805,-248.6643524169922,431.0380554199219,140.6580810546875,1.661189079284668,-3.8675360679626465
28.08571434020996,34.77735900878906,-32.18568801879883,244.91339111328125,26.83022117614746,-244.8501739501953,433.0874938964844,171.69833374023438,-4.330096244812012,-0.8794727325439453
28.121429443359375,37.675472259521484,-30.20503044128418,249.9527587890625,26.82036590576172,-245.81094360351562,432.07720947265625,174.64083862304688,-12.342546463012695,-3.862419605255127
28.100000381469727,37.675472259521484,-28.22437286376953,248.94488525390625,26.821748733520508,-245.7965087890625,433.07305908203125,157.67532348632812,-18.33507537841797,-9.872652053833008
28.19285774230957,35.7433967590332,-29.21470069885254,256.0,26.865497589111328,-241.05043029785156,434.14105224609375,128.52581787109375,-28.36744499206543,-15.828313827514648
28.21428680419922,34.77735900878906,-28.22437286376953,259.02362060546875,27.794588088989258,-242.96348571777344,432.12188720703125,88.49131774902344,-36.37491226196289,-20.818082809448242
28.125,39.607547760009766,-26.243715286254883,260.031494140625,27.790264129638672,-243.86651611328125,435.0950012207031,54.63508224487305,-43.343788146972656,-23.860715866088867
28.125,41.53962326049805,-17.33075523376465,257.00787353515625,28.71088218688965,-246.72589111328125,433.0614013671875,24.635082244873047,-52.343788146972656,-19.860715866088867
28.125,42.50566101074219,-18.321083068847656,257.00787353515625,25.89836311340332,-242.9659881591797,433.1149597167969,-8.36491870880127,-57.343788146972656,-11.860715866088867
28.132143020629883,39.607547760009766,-20.301740646362305,238.8661346435547,28.72921371459961,-244.8188018798828,434.0860900878906,-39.37641906738281,-66.34628295898438,-7.857304096221924
28.128570556640625,39.607547760009766,-26.243715286254883,250.96063232421875,30.619735717773438,-245.73374938964844,435.0702819824219,-72.37066650390625,-62.345035552978516,-2.859009265899658
28.117856979370117,36.709434509277344,-26.243715286254883,243.905517578125,27.779024124145508,-244.84170532226562,433.0888671875,-114.3534164428711,-51.34130096435547,-1.8641257286071777
28.128570556640625,36.709434509277344,-28.22437286376953,251.968505859375,29.70067024230957,-242.00021362304688,432.1390686035156,-151.37066650390625,-41.345035552978516,-1.8590092658996582
28.110713958740234,44.43773651123047,-29.21470069885254,248.94488525390625,27.749454498291016,-247.72398376464844,430.0580139160156,-167.3419189453125,-38.338809967041016,-5.8675360679626465
28.132143020629883,41.53962326049805,-40.10831832885742,249.9527587890625,30.60849380493164,-246.7089385986328,433.06414794921875,-159.37643432617188,-40.34627914428711,-3.857304096221924
28.128570556640625,42.50566101074219,-46.05029296875,247.93701171875,26.793561935424805,-248.6643524169922,431.0380554199219,-115.37066650390625,-38.345035552978516,-6.859009265899658
28.15357208251953,42.50566101074219,-46.05029296875,247.93701171875,27.733890533447266,-249.60220336914062,431.0250244140625,-43.41092300415039,-38.3537483215332,-4.847072124481201
28.15357208251953,42.50566101074219,-50.0116081237793,251.968505859375,27.736658096313477,-249.57334899902344,433.0167236328125,57.589073181152344,-35.3537483215332,-1.8470721244812012
28.10714340209961,38.641510009765625,-41.09864807128906,249.9527587890625,30.597253799438477,-247.6841278076172,431.0580139160156,137.663818359375,-31.337566375732422,7.130759239196777
28.149999618530273,39.607547760009766,-31.195358276367188,245.9212646484375,30.600021362304688,-247.6552734375,433.0497131347656,159.59481811523438,-27.35250473022461,12.151222229003906
28.092857360839844,41.53962326049805,-24.263057708740234,242.89764404296875,30.64100456237793,-242.9380645751953,432.12603759765625,124.68683624267578,-23.33258628845215,13.123937606811523
28.11428451538086,43.47169876098633,-22.282398223876953,241.8897705078125,27.78472900390625,-243.9242401123047,431.1116027832031,64.65233612060547,-22.340055465698242,11.13416862487793
28.139286041259766,42.50566101074219,-26.243715286254883,246.92913818359375,32.52598571777344,-243.91073608398438,429.1268310546875,-0.3879222869873047,-22.348770141601562,10.146106719970703
28.110713958740234,42.50566101074219,-31.195358276367188,246.92913818359375,28.7264461517334,-244.84767150878906,432.0943908691406,-49.341915130615234,-22.338809967041016,6.1324639320373535
28.149999618530273,41.53962326049805,-31.195358276367188,247.93701171875,30.60711097717285,-246.72337341308594,432.06829833984375,-59.405174255371094,-22.35250473022461,0.15122222900390625
28.149999618530273,47.33584976196289,-23.272727966308594,256.0,28.71226692199707,-246.71145629882812,434.0572509765625,-56.405174255371094,-22.35250473022461,2.1512222290039062
28.14642906188965,45.40377426147461,-40.10831832885742,254.99212646484375,32.47929763793945,-249.54541015625,432.02777099609375,-32.39942169189453,-32.351261138916016,3.14951753616333
28.14642906188965,40.573585510253906,-47.040618896484375,259.02362060546875,29.675251007080078,-244.8391876220703,432.0957946777344,28.60057830810547,-35.351261138916016,7.14951753616333
28.11428451538086,40.573585510253906,-41.09864807128906,259.02362060546875,32.51457595825195,-245.74566650390625,433.08135986328125,98.65233612060547,-40.34005355834961,13.13416862487793
28.14642906188965,40.573585510253906,-26.243715286254883,250.96063232421875,31.563003540039062,-245.7830047607422,431.0882873535156,138.6005859375,-44.351261138916016,20.149517059326172
28.132143020629883,38.641510009765625,-19.311412811279297,239.87400817871094,32.54275894165039,-242.8778076171875,435.1163330078125,121.62357330322266,-40.34627914428711,23.142696380615234
28.15357208251953,42.50566101074219,-17.33075523376465,240.8818817138672,31.58271598815918,-243.8614959716797,433.10882568359375,51.58907699584961,-31.353748321533203,24.15292739868164
28.128570556640625,44.43773651123047,-20.301740646362305,242.89764404296875,32.51180648803711,-245.77452087402344,431.08966064453125,-39.37066650390625,-24.345035552978516,21.1409912109375
28.125,44.43773651123047,-25.253385543823242,257.00787353515625,30.62544059753418,-244.8162841796875,433.093017578125,-114.36492156982422,-23.34379005432129,13.139286041259766
28.09642791748047,44.43773651123047,-27.23404312133789,249.9527587890625,33.46770095825195,-244.8341522216797,430.109619140625,-154.31890869140625,-28.333829879760742,11.125642776489258
28.121429443359375,47.33584976196289,-37.137332916259766,264.06298828125,30.58169174194336,-249.56236267089844,432.0250244140625,-157.35916137695312,-34.34254455566406,15.137580871582031
28.157142639160156,41.53962326049805,-45.05996322631836,254.99212646484375,33.41547775268555,-250.52655029296875,429.0271911621094,-134.4166717529297,-40.35499572753906,16.154632568359375
28.100000381469727,43.47169876098633,-43.07930374145508,247.93701171875,30.567684173583984,-250.56639099121094,428.0271911621094,-94.32466888427734,-45.33507537841797,14.127347946166992
28.14285659790039,42.50566101074219,-42.0889778137207,248.94488525390625,30.543649673461914,-253.39096069335938,428.979736328125,-47.39366912841797,-39.350013732910156,13.147811889648438
28.18214225769043,41.53962326049805,-43.07930374145508,252.97637939453125,30.592933654785156,-248.58717346191406,434.0311584472656,-11.456927299499512,-33.36370849609375,11.166570663452148
28.117856979370117,39.607547760009766,-38.12765884399414,257.00787353515625,28.66298484802246,-251.5152587890625,429.0058288574219,11.646581649780273,-34.34130096435547,5.1358747482299805
28.178571701049805,44.43773651123047,-35.156673431396484,254.99212646484375,32.487770080566406,-248.59909057617188,432.0422058105469,20.5488224029541,-36.362464904785156,-1.8351349830627441
28.128570556640625,39.607547760009766,-35.156673431396484,240.8818817138672,34.38399887084961,-248.59657287597656,431.04913330078125,21.629331588745117,-38.345035552978516,-8.8590087890625
28.110713958740234,41.53962326049805,-32.18568801879883,240.8818817138672,34.39817428588867,-246.73277282714844,429.0863037109375,21.658082962036133,-41.338809967041016,-15.867536544799805
28.092857360839844,44.43773651123047,-26.243715286254883,240.8818817138672,31.53758430480957,-248.6219940185547,431.04498291015625,14.686836242675781,-39.332584381103516,-16.876062393188477
28.149999618530273,48.30188751220703,-24.263057708740234,241.8897705078125,30.60434341430664,-246.75222778320312,430.07659912109375,-3.405172348022461,-39.35250473022461,-11.848777770996094
28.121429443359375,42.50566101074219,-27.23404312133789,234.8346405029297,34.38261413574219,-248.6110076904297,430.05328369140625,-29.359169006347656,-32.34254455566406,-6.862419605255127
28.128570556640625,42.50566101074219,-39.11798858642578,239.87400817871094,31.53620147705078,-248.6364288330078,430.04913330078125,-52.37066650390625,-23.345035552978516,-0.8590097427368164
28.125,44.43773651123047,-39.11798858642578,247.93701171875,32.48085403442383,-248.67123413085938,427.0629577636719,-66.36491394042969,-17.34379005432129,-3.8607144355773926
28.110713958740234,41.53962326049805,-39.11798858642578,250.96063232421875,34.34733581542969,-252.41073608398438,428.99969482421875,-54.341915130615234,-10.338810920715332,-1.8675360679626465
28.128570556640625,39.607547760009766,-47.040618896484375,253.9842529296875,34.36705017089844,-250.48919677734375,431.020263671875,-25.370668411254883,-5.345035552978516,-6.859009265899658
28.260713577270508,44.43773651123047,-39.11798858642578,260.031494140625,35.31170654296875,-250.52403259277344,428.03411865234375,11.416561126708984,-9.391098976135254,-6.795913219451904
28.167858123779297,39.607547760009766,-38.12765884399414,254.99212646484375,32.48638916015625,-248.61351013183594,431.0463562011719,54.56607437133789,-13.35873031616211,-6.840250492095947
28.149999618530273,45.40377426147461,-27.23404312133789,243.905517578125,33.43381118774414,-248.61947631835938,430.0519104003906,72.5948257446289,-15.352505683898926,-4.8487772941589355
28.149999618530273,39.607547760009766,-37.137332916259766,242.89764404296875,35.32294845581055,-249.54884338378906,430.04022216796875,64.5948257446289,-16.35250473022461,-4.8487772941589355
28.08928680419922,46.36981201171875,-30.20503044128418,257.00787353515625,32.46805953979492,-250.52059936523438,430.02166748046875,43.69258499145508,-14.331341743469238,-9.877767562866211
28.110713958740234,46.36981201171875,-26.243715286254883,250.96063232421875,33.44504928588867,-247.644287109375,432.0580139160156,11.658082962036133,-11.338810920715332,-15.867536544799805
28.071428298950195,42.50566101074219,-35.156673431396484,250.96063232421875,32.487770080566406,-248.59909057617188,432.0422058105469,-15.27865982055664,-11.325117111206055,-17.886295318603516
28.092857360839844,43.47169876098633,-37.137332916259766,254.99212646484375,34.38832092285156,-247.6935272216797,428.0760192871094,-32.31316375732422,-11.332586288452148,-21.876062393188477
28.15357208251953,43.47169876098633,-41.09864807128906,254.99212646484375,33.41962814331055,-250.48326110839844,432.0147399902344,-44.41092300415039,-16.353750228881836,-25.84707260131836
28.14285659790039,47.33584976196289,-41.09864807128906,257.00787353515625,32.4948616027832,-247.66717529296875,431.060791015625,-40.39366912841797,-23.350013732910156,-24.852188110351562
28.260713577270508,45.40377426147461,-40.10831832885742,250.96063232421875,37.219173431396484,-249.5463409423828,429.0471496582031,-20.583438873291016,-32.39109802246094,-23.795913696289062
28.15357208251953,44.43773651123047,-40.10831832885742,245.9212646484375,31.544673919677734,-247.69009399414062,430.0635681152344,13.589075088500977,-38.3537483215332,-23.84707260131836
28.121429443359375,44.43773651123047,-40.10831832885742,245.9212646484375,34.375526428222656,-249.5428924560547,431.0346984863281,40.640830993652344,-40.34254455566406,-21.86241912841797
28.117856979370117,45.40377426147461,-31.195358276367188,242.89764404296875,34.41771697998047,-245.67100524902344,437.0675354003906,53.646583557128906,-39.34130096435547,-20.864126205444336
28.139286041259766,48.30188751220703,-26.243715286254883,246.92913818359375,35.31170654296875,-250.52403259277344,428.03411865234375,47.61207962036133,-37.34877014160156,-23.853893280029297
28.16071319580078,42.50566101074219,-25.253385543823242,240.8818817138672,35.33850860595703,-247.67062377929688,429.0732421875,12.577577590942383,-33.356239318847656,-25.84366226196289
28.121429443359375,41.53962326049805,-26.243715286254883,243.905517578125,36.256187438964844,-251.41860961914062,431.00860595703125,-34.359169006347656,-28.342544555664062,-26.86241912841797
28.082141876220703,50.23396301269531,-28.22437286376953,242.89764404296875,38.176448822021484,-248.591552734375,429.0629577636719,-65.29591369628906,-25.32884979248047,-21.881179809570312
28.08928680419922,46.36981201171875,-39.11798858642578,243.905517578125,38.16797637939453,-249.53787231445312,429.04852294921875,-62.30741500854492,-20.331340789794922,-18.87776756286621
28.11428451538086,47.33584976196289,-37.137332916259766,241.8897705078125,34.361515045166016,-250.5469207763672,427.036865234375,-28.347665786743164,-15.340056419372559,-16.86583137512207
28.082141876220703,45.40377426147461,-39.11798858642578,240.8818817138672,38.138404846191406,-252.42015075683594,426.0177001953125,10.704090118408203,-7.328851699829102,-19.881179809570312
28.08571434020996,46.36981201171875,-37.137332916259766,247.93701171875,38.177833557128906,-248.57711791992188,430.0588073730469,40.69833755493164,-3.330096483230591,-21.879472732543945
28.128570556640625,46.36981201171875,-28.22437286376953,244.91339111328125,38.158119201660156,-250.4986114501953,428.03826904296875,54.62933349609375,0.6549646258354187,-19.859010696411133
28.08928680419922,47.33584976196289,-25.253385543823242,244.91339111328125,36.268985748291016,-249.56922912597656,428.0499267578125,41.69258499145508,-1.3313417434692383,-14.877767562866211
28.128570556640625,44.43773651123047,-26.243715286254883,245.9212646484375,35.29337692260742,-252.43113708496094,427.0093994140625,31.62933349609375,-1.3450353145599365,-4.859009265899658
28.110713958740234,45.40377426147461,-28.22437286376953,244.91339111328125,37.245975494384766,-246.6929168701172,430.0863037109375,27.658084869384766,-3.338810682296753,1.1324639320373535
28.10714340209961,45.40377426147461,-29.21470069885254,242.89764404296875,38.17506790161133,-248.60597229003906,428.0671081542969,25.663833618164062,-4.337566375732422,9.130759239196777
28.135713577270508,45.40377426147461,-26.243715286254883,243.905517578125,36.271751403808594,-249.54037475585938,430.0416259765625,21.617830276489258,-0.34752535820007324,13.144401550292969
28.14642906188965,47.33584976196289,-26.243715286254883,246.92913818359375,37.23750305175781,-247.63925170898438,430.0718688964844,1.600576400756836,1.6487394571304321,10.149517059326172
28.139286041259766,46.36981201171875,-32.18568801879883,248.94488525390625,34.381229400634766,-248.6254425048828,429.05743408203125,-8.387922286987305,2.6512293815612793,8.146106719970703
28.117856979370117,45.40377426147461,-35.156673431396484,252.97637939453125,35.346981048583984,-246.7242889404297,429.0876770019531,-0.35341739654541016,4.658699035644531,5.1358747482299805
28.121429443359375,38.641510009765625,-39.11798858642578,251.968505859375,36.26189041137695,-250.50112915039062,429.0313415527344,21.640830993652344,-1.3425462245941162,3.137580394744873
28.19285774230957,42.50566101074219,-37.137332916259766,253.9842529296875,36.2845458984375,-247.69100952148438,427.0829162597656,43.52581787109375,-5.36744499206543,6.171686172485352
28.092857360839844,46.36981201171875,-30.20503044128418,257.00787353515625,34.38261413574219,-248.6110076904297,430.05328369140625,67.68683624267578,-7.332586288452148,6.123937606811523
28.135713577270508,44.43773651123047,-31.195358276367188,244.91339111328125,36.298553466796875,-246.68695068359375,431.08074951171875,81.61782836914062,-10.347525596618652,12.144401550292969
28.15357208251953,49.26792526245117,-26.243715286254883,248.94488525390625,32.47791290283203,-249.55982971191406,431.03192138671875,78.58907318115234,-10.353751182556152,20.15292739868164
28.128570556640625,42.50566101074219,-28.22437286376953,244.91339111328125,37.23041534423828,-248.57115173339844,431.05328369140625,62.62933349609375,-10.345035552978516,26.140989303588867
28.125,40.573585510253906,-31.195358276367188,247.93701171875,38.181983947753906,-248.53382873535156,433.0463562011719,36.63508224487305,-7.3437910079956055,27.139284133911133
28.14285659790039,48.30188751220703,-27.23404312133789,252.97637939453125,34.38261413574219,-248.6110076904297,430.05328369140625,11.606328964233398,-7.350015640258789,23.147811889648438
28.110713958740234,45.40377426147461,-33.17601776123047,253.9842529296875,36.263275146484375,-250.4866943359375,430.0271911621094,-2.341916084289551,-6.338810920715332,18.132463455200195
28.110713958740234,43.47169876098633,-32.18568801879883,241.8897705078125,36.25341796875,-251.44747924804688,429.01690673828125,1.6580839157104492,-7.338810920715332,11.132463455200195
28.135713577270508,43.47169876098633,-29.21470069885254,242.89764404296875,34.358577728271484,-251.435546875,431.0058288574219,6.617830276489258,-6.347525596618652,6.1444010734558105
28.28571319580078,46.36981201171875,-27.23404312133789,248.94488525390625,38.16936111450195,-249.5234375,430.04437255859375,-2.623692512512207,-4.399812698364258,5.2160234451293945
28.117856979370117,44.43773651123047,-33.17601776123047,249.9527587890625,36.28437423706055,-248.55076599121094,433.0436096191406,-14.35341739654541,-4.341300964355469,5.1358747482299805
28.10714340209961,48.30188751220703,-27.23404312133789,242.89764404296875,35.31879806518555,-249.59213256835938,427.05267333984375,-19.336166381835938,-3.3375661373138428,6.130759239196777
28.11428451538086,46.36981201171875,-33.17601776123047,249.9527587890625,36.29716873168945,-246.70138549804688,430.08489990234375,-20.347665786743164,0.6599445343017578,12.13416862487793
28.128570556640625,49.26792526245117,-31.195358276367188,251.968505859375,37.219173431396484,-249.5463409423828,429.0471496582031,-20.370668411254883,5.654964447021484,18.1409912109375
28.135713577270508,44.43773651123047,-41.09864807128906,249.9527587890625,35.3314208984375,-248.60252380371094,430.0546569824219,-16.382169723510742,4.652474403381348,22.14440155029297
28.121429443359375,45.40377426147461,-36.147003173828125,263.05511474609375,33.41686248779297,-250.51211547851562,430.0230407714844,7.640830993652344,3.657453775405884,18.13758087158203
28.135713577270508,47.33584976196289,-33.17601776123047,261.03936767578125,35.313087463378906,-250.50961303710938,429.02996826171875,30.61783218383789,-1.3475253582000732,16.14440155029297
28.11428451538086,40.573585510253906,-35.156673431396484,246.92913818359375,36.29993438720703,-246.6725311279297,432.07659912109375,38.65233612060547,-6.340055465698242,14.13416862487793
28.14642906188965,39.607547760009766,-31.195358276367188,247.93701171875,37.23750305175781,-247.63925170898438,430.0718688964844,35.60057830810547,-7.351261138916016,8.149517059326172
28.242856979370117,40.573585510253906,-28.22437286376953,244.91339111328125,34.375526428222656,-249.5428924560547,431.0346984863281,20.4453125,-4.384873390197754,5.195560455322266
28.10357093811035,41.53962326049805,-30.20503044128418,240.8818817138672,34.400943756103516,-246.7039031982422,431.0780029296875,-14.330414772033691,-1.3363208770751953,4.129053115844727
28.135713577270508,44.43773651123047,-41.09864807128906,244.91339111328125,35.33574295043945,-247.69947814941406,427.08154296875,-53.38216781616211,0.6524747014045715,0.14440107345581055
28.08928680419922,42.50566101074219,-43.07930374145508,246.92913818359375,37.244590759277344,-246.7073516845703,429.0904541015625,-59.30741500854492,0.6686583161354065,-1.8777670860290527
28.117856979370117,40.573585510253906,-39.11798858642578,247.93701171875,34.36289978027344,-250.53248596191406,428.03271484375,-29.353418350219727,-2.3413007259368896,1.1358747482299805
28.11428451538086,42.50566101074219,-32.18568801879883,246.92913818359375,34.38261413574219,-248.6110076904297,430.05328369140625,16.652334213256836,-6.340055465698242,6.134169101715088
28.11428451538086,42.50566101074219,-32.18568801879883,246.92913818359375,36.237857818603516,-253.32568359375,429.98388671875,35.65233612060547,-9.340055465698242,8.13416862487793
28.10714340209961,51.20000076293945,-26.243715286254883,249.9527587890625,34.395408630371094,-246.76162719726562,427.0946044921875,23.663833618164062,-9.337566375732422,5.130759239196777
28.14285659790039,46.36981201171875,-32.18568801879883,249.9527587890625,37.22903060913086,-248.58558654785156,430.05743408203125,-5.393671035766602,-10.350015640258789,2.1478114128112793
28.09642791748047,43.47169876098633,-35.156673431396484,250.96063232421875,33.41962814331055,-250.48326110839844,432.0147399902344,-22.318912506103516,-9.333830833435059,-2.8743577003479004
28.121429443359375,40.573585510253906,-39.11798858642578,248.94488525390625,38.16365051269531,-250.44090270996094,432.02166748046875,-18.359169006347656,-8.342546463012695,-5.862419605255127
28.078571319580078,43.47169876098633,-35.156673431396484,252.97637939453125,32.47791290283203,-249.55982971191406,431.03192138671875,-8.2901611328125,-3.327606439590454,-7.882883548736572
28.100000381469727,43.47169876098633,-34.166343688964844,252.97637939453125,35.33003616333008,-248.61695861816406,429.0588073730469,-9.324666023254395,-3.335076093673706,-10.872652053833008
28.128570556640625,41.53962326049805,-31.195358276367188,246.92913818359375,37.210697174072266,-250.49264526367188,429.03271484375,-23.370668411254883,-10.345035552978516,-16.859010696411133
28.128570556640625,45.40377426147461,-32.18568801879883,245.9212646484375,36.2646598815918,-250.47225952148438,431.0230407714844,-38.37066650390625,-17.345035552978516,-22.859010696411133
28.09642791748047,44.43773651123047,-34.166343688964844,246.92913818359375,35.31170654296875,-250.52403259277344,428.03411865234375,-44.318912506103516,-17.333829879760742,-24.874357223510742
28.117856979370117,45.40377426147461,-32.18568801879883,247.93701171875,35.30461502075195,-251.45596313476562,429.0155334472656,-44.353416442871094,-17.34130096435547,-25.864124298095703
28.08928680419922,45.40377426147461,-36.147003173828125,251.968505859375,35.31170654296875,-250.52403259277344,428.03411865234375,-27.307415008544922,-15.331341743469238,-18.87776756286621
28.14642906188965,45.40377426147461,-35.156673431396484,249.9527587890625,35.31447219848633,-250.49517822265625,430.02581787109375,-4.399423122406006,-11.351261138916016,-7.85048246383667
28.149999618530273,46.36981201171875,-30.20503044128418,243.905517578125,37.19098663330078,-252.41416931152344,427.01214599609375,12.594827651977539,-9.352505683898926,0.15122222900390625
28.110713958740234,46.36981201171875,-31.195358276367188,251.968505859375,34.34872055053711,-252.39630126953125,429.99554443359375,18.658082962036133,-4.338810920715332,4.1324639320373535
28.117856979370117,43.47169876098633,-28.22437286376953,245.9212646484375,36.25065231323242,-251.47633361816406,427.02520751953125,16.646581649780273,-0.34130072593688965,5.1358747482299805
28.08571434020996,48.30188751220703,-27.23404312133789,247.93701171875,36.252037048339844,-251.46189880371094,428.02105712890625,5.698337554931641,3.669903516769409,4.120527267456055
28.092857360839844,48.30188751220703,-28.22437286376953,247.93701171875,38.162269592285156,-250.455322265625,431.02581787109375,-17.31316375732422,1.6674137115478516,2.1239380836486816
28.092857360839844,45.40377426147461,-25.253385543823242,245.9212646484375,36.252037048339844,-251.46189880371094,428.02105712890625,-41.31316375732422,1.6674137115478516,-1.8760619163513184
28.11428451538086,45.40377426147461,-33.17601776123047,251.968505859375,34.35995864868164,-251.42112731933594,432.0016784667969,-59.34766387939453,-1.3400554656982422,-2.865830898284912
28.14642906188965,44.43773651123047,-41.09864807128906,251.968505859375,36.24079513549805,-252.4370880126953,426.0149230957031,-59.39942169189453,-3.3512604236602783,-4.85048246383667
28.117856979370117,43.47169876098633,-39.11798858642578,244.91339111328125,34.334712982177734,-253.4003448486328,425.99774169921875,-37.353416442871094,-5.341300964355469,-5.864125728607178
28.10714340209961,45.40377426147461,-38.12765884399414,244.91339111328125,37.1965217590332,-252.3564453125,430.99554443359375,-6.336167335510254,-5.337566375732422,1.1307592391967773
28.100000381469727,47.33584976196289,-35.156673431396484,244.91339111328125,35.275047302246094,-254.3382110595703,425.98468017578125,26.675334930419922,-4.335076332092285,2.1273484230041504
28.132143020629883,43.47169876098633,-37.137332916259766,251.968505859375,34.358577728271484,-251.435546875,431.0058288574219,53.62358093261719,-1.346280574798584,4.142696380615234
28.174999237060547,39.607547760009766,-28.22437286376953,238.8661346435547,36.25341796875,-251.44747924804688,429.01690673828125,63.55457305908203,3.638780355453491,7.163159370422363
28.128570556640625,44.43773651123047,-27.23404312133789,250.96063232421875,37.20222473144531,-251.43899536132812,429.0182800292969,50.62933349609375,7.654964447021484,8.140990257263184
28.117856979370117,40.573585510253906,-29.21470069885254,240.8818817138672,37.220558166503906,-249.5319061279297,430.0429992675781,21.646581649780273,6.658699035644531,6.1358747482299805
28.11428451538086,49.26792526245117,-27.23404312133789,243.905517578125,32.4554328918457,-251.51023864746094,427.0196838378906,-20.347665786743164,6.659944534301758,1.134169101715088
28.08928680419922,47.33584976196289,-36.147003173828125,252.97637939453125,36.24771499633789,-252.36492919921875,430.9941711425781,-51.30741500854492,7.668658256530762,-1.8777670860290527
28.14642906188965,44.43773651123047,-34.166343688964844,241.8897705078125,36.22523498535156,-254.31529235839844,426.9819030761719,-54.39942169189453,7.648739814758301,-4.85048246383667
28.14642906188965,46.36981201171875,-32.18568801879883,252.97637939453125,34.35580825805664,-251.46441650390625,429.0141296386719,-45.39942169189453,9.648738861083984,1.14951753616333
28.450000762939453,46.36981201171875,-36.147003173828125,250.96063232421875,35.27781677246094,-254.30934143066406,427.97637939453125,-35.888221740722656,11.542919158935547,1.2944679260253906
28.282142639160156,45.40377426147461,-36.147003173828125,253.9842529296875,35.28628921508789,-253.36302185058594,427.9908142089844,-7.61794376373291,8.601431846618652,4.21431827545166
28.121429443359375,42.50566101074219,-37.137332916259766,249.9527587890625,35.301849365234375,-251.4848175048828,427.0238342285156,15.640830993652344,6.657453536987305,9.137580871582031
28.157142639160156,45.40377426147461,-31.195358276367188,258.0157470703125,35.3032341003418,-251.4703826904297,428.0196838378906,21.58332633972168,7.645005226135254,8.154632568359375
28.167858123779297,47.33584976196289,-29.21470069885254,258.0157470703125,31.495389938354492,-252.49388122558594,425.01214599609375,8.566072463989258,5.641269683837891,8.159749984741211
28.125,45.40377426147461,-31.195358276367188,252.97637939453125,36.24356460571289,-252.40821838378906,428.0066223144531,-3.3649187088012695,1.6562092304229736,7.139285564422607
28.21428680419922,50.23396301269531,-28.22437286376953,251.968505859375,33.41271209716797,-250.55540466308594,427.0354919433594,-13.508685111999512,0.6250853538513184,10.181918144226074
28.15357208251953,48.30188751220703,-30.20503044128418,254.99212646484375,37.174041748046875,-254.3068084716797,426.9833068847656,-17.410924911499023,-0.35375046730041504,12.15292739868164
28.078571319580078,46.36981201171875,-32.18568801879883,257.00787353515625,36.236473083496094,-253.34011840820312,428.988037109375,-15.2901611328125,-2.327606439590454,16.117116928100586
28.200000762939453,47.33584976196289,-29.21470069885254,260.031494140625,32.44834518432617,-252.44212341308594,428.0010986328125,-7.485682487487793,-5.369935035705566,23.17509651184082
28.253570556640625,47.33584976196289,-32.18568801879883,258.0157470703125,33.41271209716797,-250.55540466308594,427.0354919433594,-2.5719380378723145,-6.388607978820801,28.20067596435547
28.11428451538086,46.36981201171875,-35.156673431396484,261.03936767578125,36.25065231323242,-251.47633361816406,427.02520751953125,5.652334213256836,-4.340055465698242,36.13417053222656
28.189285278320312,41.53962326049805,-37.137332916259766,257.00787353515625,31.49245262145996,-253.38247680664062,428.98114013671875,25.531570434570312,-6.366199493408203,40.169979095458984
28.28928565979004,46.36981201171875,-32.18568801879883,260.031494140625,35.263633728027344,-256.17315673828125,429.939208984375,35.37055587768555,-8.401058197021484,44.21772766113281
28.185714721679688,46.36981201171875,-31.195358276367188,252.97637939453125,32.44834518432617,-252.44212341308594,428.0010986328125,36.53731918334961,-10.364954948425293,44.16827392578125
28.139286041259766,43.47169876098633,-34.166343688964844,246.92913818359375,33.41132736206055,-250.56983947753906,426.0396423339844,21.612077713012695,-17.348770141601562,39.1461067199707
28.14285659790039,41.53962326049805,-31.195358276367188,242.89764404296875,32.44834518432617,-252.44212341308594,428.0010986328125,6.606328964233398,-17.350013732910156,31.147811889648438
28.125,41.53962326049805,-31.195358276367188,242.89764404296875,30.569068908691406,-250.55197143554688,429.0230407714844,-1.3649187088012695,-19.34379005432129,27.139284133911133
28.117856979370117,41.53962326049805,-34.166343688964844,249.9527587890625,30.542264938354492,-253.40538024902344,427.98388671875,-12.35341739654541,-18.34130096435547,26.135873794555664
28.135713577270508,40.573585510253906,-37.137332916259766,243.905517578125,33.401302337646484,-252.39035034179688,430.9900207519531,-19.382169723510742,-20.347524642944336,25.144399642944336
28.125,44.43773651123047,-40.10831832885742,249.9527587890625,33.38591003417969,-253.40882873535156,425.996337890625,-17.364917755126953,-21.34379005432129,23.139284133911133
28.135713577270508,45.40377426147461,-33.17601776123047,249.9527587890625,32.435546875,-254.29147338867188,430.95977783203125,-13.382169723510742,-21.347524642944336,21.14440155029297
28.110713958740234,43.47169876098633,-39.11798858642578,253.9842529296875,37.166954040527344,-255.2387237548828,427.9647216796875,-14.34191608428955,-25.338809967041016,21.132463455200195
28.15357208251953,43.47169876098633,-36.147003173828125,246.92913818359375,34.34163284301758,-253.32818603515625,430.97698974609375,-14.410924911499023,-29.353750228881836,21.15292739868164
28.264286041259766,43.47169876098633,-39.11798858642578,247.93701171875,34.338863372802734,-253.3570556640625,428.98529052734375,-11.589191436767578,-29.392343521118164,20.205791473388672
28.09642791748047,43.47169876098633,-41.09864807128906,249.9527587890625,31.471355438232422,-255.3184356689453,425.9647216796875,-5.318913459777832,-30.333829879760742,19.125642776489258
28.11428451538086,42.50566101074219,-37.137332916259766,244.91339111328125,34.31621170043945,-256.16717529296875,430.9336853027344,1.652334213256836,-28.340055465698242,17.13416862487793
28.132143020629883,42.50566101074219,-36.147003173828125,249.9527587890625,34.329010009765625,-254.3177947998047,427.9750061035156,-4.376420497894287,-28.34627914428711,13.142696380615234
28.128570556640625,48.30188751220703,-37.137332916259766,251.968505859375,31.49106788635254,-253.3968963623047,427.98529052734375,-21.370668411254883,-27.345035552978516,11.140990257263184
28.16071319580078,46.36981201171875,-38.12765884399414,250.96063232421875,32.42863082885742,-254.36363220214844,425.98052978515625,-25.422422409057617,-25.356239318847656,9.15633773803711
28.167858123779297,45.40377426147461,-41.09864807128906,247.93701171875,35.27366638183594,-254.35264587402344,424.98883056640625,-18.433927536010742,-25.35873031616211,10.159749984741211
28.14285659790039,43.47169876098633,-40.10831832885742,247.93701171875,32.42292404174805,-255.28111267089844,427.9577941894531,-9.393671035766602,-24.350013732910156,11.147811889648438
28.135713577270508,43.47169876098633,-38.12765884399414,242.89764404296875,33.377437591552734,-254.3551483154297,425.9819030761719,-9.382169723510742,-21.347524642944336,15.144401550292969
28.16071319580078,49.26792526245117,-38.12765884399414,246.92913818359375,33.329368591308594,-260.0042724609375,427.88702392578125,-18.422422409057617,-16.356239318847656,17.15633773803711
28.30714225769043,46.36981201171875,-38.12765884399414,245.9212646484375,33.371734619140625,-255.2726287841797,427.9591979980469,-23.6581974029541,-11.407282829284668,14.226255416870117
28.10714340209961,45.40377426147461,-43.07930374145508,248.94488525390625,34.3234748840332,-254.37551879882812,423.9916076660156,-19.336166381835938,-10.337566375732422,13.130759239196777
28.128570556640625,42.50566101074219,-43.07930374145508,249.9527587890625,35.28490447998047,-253.37745666503906,426.9949645996094,4.629331588745117,-10.345035552978516,10.140990257263184
28.135713577270508,43.47169876098633,-41.09864807128906,246.92913818359375,34.31206130981445,-256.2104797363281,427.9461364746094,30.61783218383789,-13.347525596618652,7.1444010734558105
28.092857360839844,44.43773651123047,-41.09864807128906,253.9842529296875,35.27781677246094,-254.30934143066406,427.97637939453125,40.68683624267578,-19.33258628845215,6.123937606811523
28.110713958740234,43.47169876098633,-42.0889778137207,245.9212646484375,32.43278121948242,-254.32034301757812,428.96807861328125,39.658084869384766,-23.338809967041016,0.13246393203735352
28.139286041259766,40.573585510253906,-37.137332916259766,239.87400817871094,35.27366638183594,-254.35264587402344,424.98883056640625,43.61207962036133,-24.348770141601562,-1.8538928031921387
28.117856979370117,43.47169876098633,-36.147003173828125,244.91339111328125,32.415836334228516,-256.2130126953125,428.939208984375,38.646583557128906,-24.34130096435547,0.13587474822998047
28.11428451538086,46.36981201171875,-36.147003173828125,238.8661346435547,35.260868072509766,-256.2020263671875,427.947509765625,22.652334213256836,-22.340055465698242,-1.865830898284912
28.11428451538086,51.20000076293945,-35.156673431396484,251.968505859375,34.3276252746582,-254.3322296142578,426.9791564941406,2.652334213256836,-21.340055465698242,-1.865830898284912
28.11428451538086,46.36981201171875,-36.147003173828125,253.9842529296875,37.1712760925293,-254.33567810058594,424.9916076660156,-10.347665786743164,-18.340055465698242,-0.8658308982849121
28.132143020629883,44.43773651123047,-32.18568801879883,248.94488525390625,33.37311553955078,-255.25820922851562,428.9550476074219,-21.376419067382812,-16.34627914428711,0.14269590377807617
28.09642791748047,49.26792526245117,-37.137332916259766,250.96063232421875,35.275047302246094,-254.3382110595703,425.98468017578125,-38.318912506103516,-16.333829879760742,-4.8743577003479
28.125,49.26792526245117,-41.09864807128906,253.9842529296875,32.431396484375,-254.3347625732422,427.97222900390625,-45.36491775512695,-14.343791007995605,-7.860714435577393
28.135713577270508,44.43773651123047,-48.030948638916016,252.97637939453125,33.363258361816406,-256.2189636230469,427.94476318359375,-26.382169723510742,-10.347525596618652,-12.855600357055664
28.132143020629883,44.43773651123047,-45.05996322631836,251.968505859375,37.18389892578125,-253.34605407714844,427.99359130859375,7.623579025268555,-10.346281051635742,-14.857303619384766
28.128570556640625,43.47169876098633,-41.09864807128906,253.9842529296875,39.06871032714844,-255.17849731445312,430.9550476074219,52.62933349609375,-12.345035552978516,-16.859010696411133
28.139286041259766,42.50566101074219,-32.18568801879883,249.9527587890625,35.28767013549805,-253.34860229492188,428.9866638183594,86.61207580566406,-16.348770141601562,-15.853893280029297
28.21428680419922,47.33584976196289,-26.243715286254883,248.94488525390625,38.14117431640625,-252.3912811279297,428.0093994140625,80.49131774902344,-22.374914169311523,-11.818082809448242
28.10714340209961,48.30188751220703,-25.253385543823242,250.96063232421875,32.431396484375,-254.3347625732422,427.97222900390625,44.66383361816406,-23.337566375732422,-10.869241714477539
28.125,41.53962326049805,-31.195358276367188,238.8661346435547,35.259483337402344,-256.2164611816406,426.95166015625,-7.3649187088012695,-25.34379005432129,-9.860715866088867
28.14642906188965,49.26792526245117,-35.156673431396484,248.94488525390625,36.20828628540039,-256.2079772949219,426.95306396484375,-55.39942169189453,-27.351259231567383,-12.850482940673828
28.178571701049805,43.47169876098633,-47.040618896484375,249.9527587890625,38.1143684387207,-255.2447052001953,426.9702453613281,-73.45117950439453,-31.362464904785156,-20.835134506225586
28.128570556640625,41.53962326049805,-47.040618896484375,252.97637939453125,37.15985870361328,-256.1706237792969,428.9461364746094,-42.37066650390625,-30.345035552978516,-28.8590087890625
28.100000381469727,44.43773651123047,-37.137332916259766,242.89764404296875,34.32624053955078,-254.34666442871094,425.9833068847656,11.675334930419922,-30.33507537841797,-28.872650146484375
28.117856979370117,49.26792526245117,-27.23404312133789,249.9527587890625,34.329010009765625,-254.3177947998047,427.9750061035156,60.646583557128906,-29.34130096435547,-27.864124298095703
28.16428565979004,48.30188751220703,-30.20503044128418,247.93701171875,40.950927734375,-256.1800231933594,425.964111328125,85.57182312011719,-28.357484817504883,-20.841957092285156
28.157142639160156,50.23396301269531,-18.321083068847656,242.89764404296875,36.233707427978516,-253.3689727783203,426.996337890625,81.58332824707031,-27.35499382019043,-12.845367431640625
28.135713577270508,45.40377426147461,-30.20503044128418,245.9212646484375,41.912353515625,-255.18194580078125,428.9674987792969,50.61783218383789,-23.347524642944336,0.14440107345581055
28.10714340209961,49.26792526245117,-27.23404312133789,238.8661346435547,37.185279846191406,-253.33163452148438,428.98944091796875,1.663832664489746,-21.337566375732422,7.130759239196777
28.18214225769043,48.30188751220703,-35.156673431396484,249.9527587890625,40.96493911743164,-255.17599487304688,429.9619445800781,-38.45692443847656,-19.36370849609375,6.166569709777832
28.167858123779297,48.30188751220703,-35.156673431396484,249.9527587890625,34.354427337646484,-251.4788360595703,428.0182800292969,-46.43392562866211,-16.35873031616211,5.159749507904053
28.132143020629883,47.33584976196289,-43.07930374145508,251.968505859375,38.1102180480957,-255.28799438476562,423.9826965332031,-31.376420974731445,-15.346280097961426,5.142696380615234
28.08928680419922,48.30188751220703,-39.11798858642578,247.93701171875,35.279197692871094,-254.294921875,428.97222900390625,1.6925849914550781,-15.331341743469238,3.1222329139709473
28.110713958740234,48.30188751220703,-36.147003173828125,244.91339111328125,40.02045440673828,-254.28138732910156,426.9874572753906,33.658084869384766,-14.338810920715332,-0.8675360679626465
28.082141876220703,49.26792526245117,-36.147003173828125,244.91339111328125,37.162803649902344,-255.2820281982422,424.9771728515625,52.7040901184082,-18.32884979248047,-1.881178379058838
28.082141876220703,49.26792526245117,-30.20503044128418,249.9527587890625,39.112632751464844,-249.5726776123047,426.0623779296875,60.70408630371094,-17.32884979248047,4.118821144104004
28.19285774230957,45.40377426147461,-31.195358276367188,244.91339111328125,36.21952819824219,-255.2327880859375,428.9591979980469,50.52581787109375,-18.36744499206543,8.171686172485352
28.196428298950195,46.36981201171875,-30.20503044128418,239.87400817871094,39.06455993652344,-255.22178649902344,427.9674987792969,6.5200700759887695,-20.368688583374023,9.173391342163086
28.157142639160156,47.33584976196289,-36.147003173828125,247.93701171875,36.24633026123047,-252.37936401367188,429.9983215332031,-15.41667366027832,-17.35499382019043,7.154633045196533
28.092857360839844,48.30188751220703,-35.156673431396484,250.96063232421875,37.17974853515625,-253.3893585205078,425.00604248046875,-25.31316375732422,-14.332586288452148,3.1239378452301025
28.135713577270508,46.36981201171875,-35.156673431396484,240.8818817138672,36.23924255371094,-253.31124877929688,430.979736328125,-26.382169723510742,-11.347525596618652,0.14440107345581055
28.149999618530273,50.23396301269531,-39.11798858642578,247.93701171875,40.02754211425781,-253.34950256347656,426.00604248046875,-8.405172348022461,-5.352504730224609,-2.8487772941589355
28.09642791748047,48.30188751220703,-39.11798858642578,247.93701171875,37.1641845703125,-255.26759338378906,425.9730224609375,17.681087493896484,-4.333830833435059,0.1256427764892578
28.10714340209961,48.30188751220703,-41.09864807128906,249.9527587890625,37.200843811035156,-251.4534149169922,428.0224304199219,46.66383361816406,-5.337566375732422,3.1307592391967773
28.132143020629883,43.47169876098633,-37.137332916259766,245.9212646484375,37.174041748046875,-254.3068084716797,426.9833068847656,58.62358093261719,-7.346281051635742,9.142696380615234
28.157142639160156,47.33584976196289,-27.23404312133789,248.94488525390625,37.210697174072266,-250.49264526367188,429.03271484375,47.58332443237305,-7.3549957275390625,10.154632568359375
28.167858123779297,45.40377426147461,-28.22437286376953,243.905517578125,38.11298370361328,-255.25914001464844,425.9743957519531,11.566072463989258,-8.35873031616211,10.159749984741211
28.242856979370117,51.20000076293945,-26.243715286254883,245.9212646484375,38.12993240356445,-253.36647033691406,426.0032653808594,-25.5546875,-5.384873390197754,8.195560455322266
28.14285659790039,48.30188751220703,-39.11798858642578,249.9527587890625,37.17680740356445,-254.2779541015625,428.9750061035156,-42.39366912841797,-5.350015640258789,7.1478118896484375
28.11428451538086,47.33584976196289,-42.0889778137207,242.89764404296875,39.075801849365234,-254.24658203125,429.9736022949219,-25.347665786743164,-3.3400557041168213,9.13416862487793
28.10714340209961,48.30188751220703,-45.05996322631836,254.99212646484375,39.05331802368164,-256.19696044921875,425.96136474609375,15.663833618164062,-3.3375661373138428,9.130759239196777
28.157142639160156,45.40377426147461,-39.11798858642578,245.9212646484375,38.15102767944336,-251.4305419921875,429.0196838378906,51.58332443237305,-3.354995012283325,8.154632568359375
28.15357208251953,48.30188751220703,-32.18568801879883,248.94488525390625,39.08012390136719,-253.3435516357422,427.00048828125,66.58907318115234,-2.353750467300415,6.152928352355957
28.139286041259766,49.26792526245117,-29.21470069885254,247.93701171875,40.969261169433594,-254.27293395996094,426.98883056640625,57.61207580566406,-1.3487706184387207,2.146106719970703
28.15357208251953,45.40377426147461,-33.17601776123047,248.94488525390625,36.233707427978516,-253.3689727783203,426.996337890625,32.58907699584961,-2.353750467300415,-2.847072124481201
28.125,46.36981201171875,-30.20503044128418,241.8897705078125,38.1327018737793,-253.3376007080078,427.9949645996094,-2.3649187088012695,-2.3437907695770264,-3.8607144355773926
28.125,44.43773651123047,-41.09864807128906,252.97637939453125,37.18960189819336,-252.42860412597656,426.01629638671875,-24.364917755126953,-5.3437910079956055,-4.860714435577393
28.149999618530273,44.43773651123047,-41.09864807128906,252.97637939453125,40.01336669921875,-255.2133026123047,427.9688720703125,-28.40517234802246,-4.352504730224609,-6.8487772941589355
28.274999618530273,45.40377426147461,-37.137332916259766,242.89764404296875,37.17680740356445,-254.2779541015625,428.9750061035156,-17.606441497802734,-5.396078109741211,-5.789092540740967
28.071428298950195,48.30188751220703,-31.195358276367188,248.94488525390625,37.16556930541992,-255.25315856933594,426.9688720703125,-9.27865982055664,-7.325117111206055,-0.8862943649291992
28.082141876220703,47.33584976196289,-36.147003173828125,243.905517578125,40.04587173461914,-251.4424285888672,427.0307312011719,-18.295909881591797,-2.3288509845733643,-1.881178379058838
28.10714340209961,48.30188751220703,-38.12765884399414,247.93701171875,37.174041748046875,-254.3068084716797,426.9833068847656,-20.336166381835938,1.6624338626861572,-4.869241237640381
28.132143020629883,44.43773651123047,-38.12765884399414,254.99212646484375,36.22091293334961,-255.21835327148438,429.9550476074219,-13.376420974731445,1.6537193059921265,-6.857304096221924
28.110713958740234,46.36981201171875,-33.17601776123047,247.93701171875,39.08012390136719,-253.3435516357422,427.00048828125,-4.341916084289551,-2.338810920715332,-9.867536544799805
28.125,49.26792526245117,-34.166343688964844,253.9842529296875,38.131317138671875,-253.35203552246094,426.9991149902344,-2.3649187088012695,-7.3437910079956055,-7.860714435577393
28.11428451538086,48.30188751220703,-37.137332916259766,244.91339111328125,39.08012390136719,-253.3435516357422,427.00048828125,0.6523342132568359,-11.340055465698242,-7.865830898284912
28.125,48.30188751220703,-36.147003173828125,249.9527587890625,38.131317138671875,-253.35203552246094,426.9991149902344,8.635080337524414,-11.343791007995605,-7.860714435577393
28.135713577270508,46.36981201171875,-40.10831832885742,246.92913818359375,37.174041748046875,-254.3068084716797,426.9833068847656,19.617830276489258,-12.347525596618652,-1.8555989265441895
28.15357208251953,47.33584976196289,-33.17601776123047,248.94488525390625,38.11143112182617,-256.13330078125,430.939208984375,33.58907699584961,-11.353751182556152,2.152927875518799
28.121429443359375,45.40377426147461,-36.147003173828125,249.9527587890625,38.14532470703125,-252.34799194335938,430.9969482421875,40.640830993652344,-7.342546463012695,5.137580394744873
28.139286041259766,47.33584976196289,-33.17601776123047,245.9212646484375,39.082889556884766,-253.314697265625,428.9921875,31.612079620361328,-4.348771095275879,7.146106719970703
28.149999618530273,49.26792526245117,-33.17601776123047,252.97637939453125,36.252037048339844,-251.46189880371094,428.02105712890625,16.59482765197754,-1.3525052070617676,3.1512222290039062
28.246429443359375,45.40377426147461,-41.09864807128906,243.905517578125,39.05470275878906,-256.18255615234375,426.95721435546875,-11.560440063476562,1.61388099193573,1.1972661018371582
28.10714340209961,46.36981201171875,-47.040618896484375,258.0157470703125,34.331947326660156,-253.42919921875,424.00604248046875,-30.336166381835938,-0.3375661373138428,-3.869241237640381
28.328571319580078,41.53962326049805,-46.05029296875,243.905517578125,39.08012390136719,-253.3435516357422,427.00048828125,-24.69270133972168,-2.414752244949341,-10.763513565063477
28.125,44.43773651123047,-45.05996322631836,249.9527587890625,36.21814727783203,-255.24720764160156,427.9633483886719,2.6350812911987305,-4.3437910079956055,-10.860715866088867
28.149999618530273,43.47169876098633,-41.09864807128906,247.93701171875,40.030311584472656,-253.3206329345703,427.99774169921875,30.594825744628906,-6.352504730224609,-10.848777770996094
28.132143020629883,42.50566101074219,-37.137332916259766,240.8818817138672,39.065940856933594,-255.20736694335938,428.9633483886719,46.62358093261719,-4.346281051635742,-12.857303619384766
28.128570556640625,42.50566101074219,-37.137332916259766,240.8818817138672,37.1795768737793,-254.24908447265625,430.9667053222656,41.62933349609375,-2.3450353145599365,-14.859010696411133
28.125,43.47169876098633,-37.137332916259766,245.9212646484375,37.19513702392578,-252.37088012695312,429.99969482421875,17.635080337524414,-0.34379076957702637,-15.860715866088867
28.16071319580078,46.36981201171875,-36.147003173828125,250.96063232421875,39.078739166259766,-253.3579864501953,426.004638671875,-9.422422409057617,0.6437602043151855,-19.84366226196289
28.128570556640625,44.43773651123047,-36.147003173828125,243.905517578125,38.124229431152344,-254.28392028808594,427.98052978515625,-33.37066650390625,-3.3450353145599365,-21.859010696411133
28.135713577270508,45.40377426147461,-33.17601776123047,252.97637939453125,39.07441711425781,-254.26101684570312,428.9777526855469,-51.38216781616211,-10.347525596618652,-25.85559844970703
28.139286041259766,42.50566101074219,-31.195358276367188,250.96063232421875,36.22108459472656,-254.35858154296875,423.9943542480469,-74.38792419433594,-15.348771095275879,-25.853893280029297
28.157142639160156,46.36981201171875,-30.20503044128418,241.8897705078125,40.969261169433594,-254.27293395996094,426.98883056640625,-112.41667175292969,-21.35499382019043,-27.845367431640625
28.132143020629883,45.40377426147461,-32.18568801879883,238.8661346435547,37.166954040527344,-255.2387237548828,427.9647216796875,-150.37643432617188,-20.34627914428711,-28.857303619384766
28.18214225769043,47.33584976196289,-34.166343688964844,240.8818817138672,40.00783157348633,-255.27102661132812,423.9854736328125,-171.45693969726562,-19.36370849609375,-28.833431243896484
28.174999237060547,47.33584976196289,-41.09864807128906,247.93701171875,37.14723587036133,-257.16021728515625,425.94415283203125,-169.4454345703125,-16.36121940612793,-22.836841583251953
28.08928680419922,46.36981201171875,-40.10831832885742,252.97637939453125,40.92274475097656,-259.0478820800781,423.92913818359375,-148.30740356445312,-13.331341743469238,-23.87776756286621
28.08928680419922,47.33584976196289,-39.11798858642578,243.905517578125,39.04346466064453,-257.15771484375,424.9510803222656,-116.30741882324219,-6.331341743469238,-26.877765655517578
28.26785659790039,50.23396301269531,-39.11798858642578,251.968505859375,43.75359344482422,-260.9006652832031,424.9002685546875,-80.59494018554688,-0.39358818531036377,-24.792503356933594
28.117856979370117,49.26792526245117,-38.12765884399414,250.96063232421875,39.9583740234375,-260.9345397949219,424.8947448730469,-40.353416442871094,9.658699035644531,-14.864126205444336
28.185714721679688,44.43773651123047,-38.12765884399414,251.968505859375,41.87016296386719,-259.0538330078125,422.9346618652344,6.537321090698242,18.635046005249023,-1.8317246437072754
28.11428451538086,46.36981201171875,-34.166343688964844,244.91339111328125,37.14308547973633,-257.2035217285156,422.95660400390625,33.65233612060547,23.659944534301758,14.13416862487793
28.157142639160156,46.36981201171875,-31.195358276367188,245.9212646484375,39.00542068481445,-260.986328125,421.9057922363281,35.58332443237305,26.64500617980957,29.154632568359375
28.092857360839844,45.40377426147461,-39.11798858642578,253.9842529296875,39.05470275878906,-256.18255615234375,426.95721435546875,28.68683624267578,23.66741371154785,37.123939514160156
28.100000381469727,45.40377426147461,-40.10831832885742,250.96063232421875,38.05799865722656,-260.9803771972656,422.9002685546875,27.675334930419922,16.66492462158203,36.127349853515625
28.125,44.43773651123047,-40.10831832885742,251.968505859375,37.10780715942383,-261.0032653808594,421.9030456542969,29.635082244873047,8.656208992004395,30.139284133911133
28.128570556640625,46.36981201171875,-40.10831832885742,256.0,38.06785583496094,-260.0196228027344,423.9105529785156,34.62933349609375,-1.3450353145599365,23.140989303588867
28.128570556640625,45.40377426147461,-41.09864807128906,247.93701171875,35.25809860229492,-256.2308654785156,425.955810546875,37.62933349609375,-13.345035552978516,12.140990257263184
28.14642906188965,46.36981201171875,-38.12765884399414,250.96063232421875,38.07200622558594,-259.9763488769531,426.8981018066406,48.60057830810547,-21.351259231567383,2.14951753616333
28.16071319580078,47.33584976196289,-36.147003173828125,253.9842529296875,37.1359977722168,-258.13543701171875,423.9380187988281,47.57757568359375,-29.356239318847656,-3.8436617851257324
28.171428680419922,42.50566101074219,-41.09864807128906,257.00787353515625,40.94816207885742,-256.2088928222656,423.972412109375,38.56032180786133,-35.3599739074707,-9.838546752929688
28.117856979370117,51.20000076293945,-36.147003173828125,258.0157470703125,39.037757873535156,-258.0752258300781,426.9283447265625,28.646583557128906,-39.34130096435547,-16.864126205444336
28.128570556640625,44.43773651123047,-42.0889778137207,244.91339111328125,35.21297073364258,-260.9913635253906,423.8919677734375,18.629331588745117,-44.345035552978516,-20.859010696411133
28.11428451538086,46.36981201171875,-39.11798858642578,245.9212646484375,39.02790069580078,-259.03594970703125,425.9180603027344,19.652334213256836,-45.34005355834961,-22.86583137512207
28.11428451538086,48.30188751220703,-37.137332916259766,245.9212646484375,40.93830490112305,-257.1696472167969,422.962158203125,28.65233612060547,-43.34005355834961,-17.86583137512207
28.14285659790039,48.30188751220703,-40.10831832885742,251.968505859375,42.849918365478516,-256.148681640625,426.9627380371094,36.60633087158203,-42.350013732910156,-13.852188110351562
28.10357093811035,50.23396301269531,-35.156673431396484,253.9842529296875,40.94245529174805,-257.1263427734375,425.94970703125,22.669586181640625,-39.33631896972656,-11.870946884155273
28.157142639160156,43.47169876098633,-40.10831832885742,247.93701171875,38.10036087036133,-256.2487487792969,422.972412109375,1.5833263397216797,-37.35499572753906,-10.845367431640625
28.121429443359375,45.40377426147461,-38.12765884399414,248.94488525390625,40.00074005126953,-256.2029113769531,424.9668884277344,-21.359169006347656,-33.34254455566406,-9.862419128417969
28.132143020629883,46.36981201171875,-36.147003173828125,244.91339111328125,39.97255325317383,-259.0707702636719,422.931884765625,-43.37641906738281,-32.34627914428711,-12.857303619384766
28.117856979370117,49.26792526245117,-40.10831832885742,248.94488525390625,42.838680267333984,-257.12384033203125,424.95660400390625,-53.353416442871094,-30.34130096435547,-15.864126205444336
28.121429443359375,47.33584976196289,-45.05996322631836,248.94488525390625,39.97393798828125,-259.05633544921875,423.927734375,-46.359169006347656,-29.342544555664062,-17.86241912841797
28.128570556640625,49.26792526245117,-36.147003173828125,246.92913818359375,39.02375030517578,-259.0792541503906,422.9305114746094,-27.370668411254883,-31.345035552978516,-14.859010696411133
28.139286041259766,46.36981201171875,-35.156673431396484,250.96063232421875,43.77486038208008,-258.1050109863281,421.9560241699219,-24.387922286987305,-34.34877014160156,-9.853893280029297
28.14642906188965,44.43773651123047,-37.137332916259766,240.8818817138672,39.964080810546875,-260.01708984375,422.91748046875,-39.39942169189453,-35.351261138916016,-1.85048246383667
28.14285659790039,46.36981201171875,-39.11798858642578,232.8188934326172,44.69963073730469,-260.9210510253906,422.9099426269531,-54.39366912841797,-32.350013732910156,2.1478114128112793
28.19285774230957,54.098114013671875,-40.10831832885742,245.9212646484375,40.93830490112305,-257.1696472167969,422.962158203125,-60.47418212890625,-30.36744499206543,-0.8283133506774902
28.092857360839844,46.36981201171875,-44.06963348388672,245.9212646484375,43.725406646728516,-263.7685241699219,422.8652648925781,-45.31316375732422,-26.33258628845215,-4.876061916351318
28.10357093811035,46.36981201171875,-45.05996322631836,239.87400817871094,40.91565704345703,-259.9797668457031,424.9105529785156,-21.330413818359375,-24.336320877075195,-9.870946884155273
28.10357093811035,46.36981201171875,-43.07930374145508,246.92913818359375,42.799251556396484,-260.9668884277344,420.9154968261719,0.6695852279663086,-21.336320877075195,-11.870946884155273
28.139286041259766,49.26792526245117,-38.12765884399414,249.9527587890625,42.803401947021484,-260.923583984375,423.9030456542969,13.612077713012695,-18.348770141601562,-9.853893280029297
28.110713958740234,51.20000076293945,-29.21470069885254,243.905517578125,42.8118782043457,-259.9772644042969,423.91748046875,16.658082962036133,-16.338809967041016,-4.8675360679626465
28.10714340209961,51.20000076293945,-27.23404312133789,239.87400817871094,43.76777267456055,-259.0368957519531,422.93743896484375,4.663832664489746,-16.337566375732422,2.1307592391967773
28.11428451538086,47.33584976196289,-33.17601776123047,232.8188934326172,38.04243469238281,-262.8586120605469,423.86724853515625,-20.347665786743164,-17.340055465698242,7.134169101715088
28.149999618530273,47.33584976196289,-33.17601776123047,232.8188934326172,42.816200256347656,-259.0742492675781,420.9443359375,-39.405174255371094,-18.35250473022461,8.151222229003906
28.125,48.30188751220703,-38.12765884399414,245.9212646484375,40.90164566040039,-260.98382568359375,420.9127197265625,-38.36492156982422,-16.34379005432129,8.13928508758545
28.16071319580078,50.23396301269531,-38.12765884399414,241.8897705078125,39.97255325317383,-259.0707702636719,422.931884765625,-17.422422409057617,-8.356240272521973,9.15633773803711
28.314285278320312,46.36981201171875,-46.05029296875,246.92913818359375,43.77347946166992,-258.11944580078125,420.9601745605469,17.33030128479004,-3.4097726345062256,6.229666233062744
28.135713577270508,52.166038513183594,-42.0889778137207,254.99212646484375,40.91288757324219,-260.0086364746094,422.9188537597656,44.61783218383789,-2.3475253582000732,8.144401550292969
28.092857360839844,48.30188751220703,-35.156673431396484,250.96063232421875,38.998329162597656,-261.9182434082031,422.8872375488281,51.68683624267578,-0.33258628845214844,9.123937606811523
28.135713577270508,50.23396301269531,-32.18568801879883,249.9527587890625,40.91427230834961,-259.99420166015625,423.9147033691406,30.61783218383789,-1.3475253582000732,9.144401550292969
28.23928451538086,51.20000076293945,-30.20503044128418,248.94488525390625,41.868778228759766,-259.0682678222656,421.9388122558594,-3.5489354133605957,-5.383628845214844,11.193854331970215
28.139286041259766,51.20000076293945,-34.166343688964844,239.87400817871094,42.78230667114258,-262.85955810546875,420.8866271972656,-33.38792419433594,-5.348771095275879,8.146106719970703
28.125,48.30188751220703,-42.0889778137207,247.93701171875,46.62542724609375,-258.0362854003906,424.9477233886719,-39.36492156982422,-4.3437910079956055,10.139286041259766
28.092857360839844,52.166038513183594,-42.0889778137207,254.99212646484375,40.90579605102539,-260.9405212402344,423.9002685546875,-26.31316375732422,-3.3325865268707275,11.123937606811523
28.071428298950195,48.30188751220703,-41.09864807128906,245.9212646484375,43.75359344482422,-260.9006652832031,424.9002685546875,-8.27865982055664,-3.3251163959503174,11.1137056350708
28.125,52.166038513183594,-35.156673431396484,249.9527587890625,41.861690521240234,-260.0001525878906,422.92022705078125,8.635080337524414,-2.3437907695770264,11.139286041259766
28.08571434020996,46.36981201171875,-39.11798858642578,239.87400817871094,42.814815521240234,-259.08868408203125,419.948486328125,13.69833755493164,1.6699036359786987,16.120527267456055
28.157142639160156,51.20000076293945,-33.17601776123047,250.96063232421875,41.86030578613281,-260.01458740234375,421.92437744140625,6.58332633972168,1.6450048685073853,22.154632568359375
28.157142639160156,50.23396301269531,-33.17601776123047,247.93701171875,43.76777267456055,-259.0368957519531,422.93743896484375,-17.41667366027832,0.6450048685073853,24.154632568359375
28.178571701049805,47.33584976196289,-38.12765884399414,238.8661346435547,41.85183334350586,-260.9609069824219,421.9099426269531,-42.45117950439453,-1.3624649047851562,23.164865493774414
28.174999237060547,48.30188751220703,-49.021278381347656,252.97637939453125,42.79354476928711,-261.8843688964844,422.89276123046875,-49.44542694091797,-3.361219644546509,21.163158416748047
28.14285659790039,47.33584976196289,-46.05029296875,249.9527587890625,39.94004440307617,-262.8416442871094,423.8700256347656,-30.3936710357666,-7.350015640258789,13.147811889648438
28.14285659790039,46.36981201171875,-48.030948638916016,250.96063232421875,41.841976165771484,-261.92169189453125,420.8996887207031,4.606328964233398,-10.350015640258789,7.1478118896484375
28.08571434020996,49.26792526245117,-41.09864807128906,239.87400817871094,41.855987548828125,-260.9176025390625,424.8974914550781,32.69833755493164,-11.330096244812012,8.120527267456055
28.139286041259766,45.40377426147461,-40.10831832885742,246.92913818359375,42.81343078613281,-259.10308837890625,418.95263671875,41.61207962036133,-10.348771095275879,9.146106719970703
28.14285659790039,47.33584976196289,-38.12765884399414,247.93701171875,39.0209846496582,-259.1081237792969,420.9388122558594,32.60633087158203,-6.350015640258789,11.147811889648438
28.09642791748047,48.30188751220703,-35.156673431396484,237.85826110839844,41.86030578613281,-260.01458740234375,421.92437744140625,12.681087493896484,-4.333830833435059,15.125642776489258
28.08928680419922,51.20000076293945,-36.147003173828125,247.93701171875,40.92274475097656,-259.0478820800781,423.92913818359375,-14.307415008544922,-2.3313417434692383,22.12223243713379
28.14642906188965,47.33584976196289,-35.156673431396484,235.84251403808594,41.84474182128906,-261.892822265625,422.8913879394531,-41.39942169189453,7.648739814758301,28.149517059326172
28.139286041259766,49.26792526245117,-42.0889778137207,253.9842529296875,38.99556350708008,-261.9471130371094,420.8955383300781,-64.38792419433594,13.651228904724121,38.1461067199707
28.171428680419922,51.20000076293945,-45.05996322631836,254.99212646484375,43.72972869873047,-262.8655090332031,419.89215087890625,-67.43968200683594,16.640026092529297,47.16145324707031
28.121429443359375,46.36981201171875,-51.00193405151367,244.91339111328125,39.964080810546875,-260.01708984375,422.91748046875,-46.359169006347656,20.657455444335938,51.13758087158203
28.139286041259766,43.47169876098633,-51.00193405151367,247.93701171875,41.83350372314453,-262.8680114746094,420.88525390625,-6.3879218101501465,15.651228904724121,53.1461067199707
28.10714340209961,42.50566101074219,-47.040618896484375,244.91339111328125,39.0081901550293,-260.95745849609375,423.8974914550781,38.66383361816406,11.662433624267578,53.130760192871094
28.135713577270508,43.47169876098633,-41.09864807128906,243.905517578125,40.894554138183594,-261.9157409667969,421.8941345214844,55.617828369140625,7.652474403381348,49.14440155029297
28.10714340209961,47.33584976196289,-38.12765884399414,243.905517578125,37.0965690612793,-261.9784851074219,419.89691162109375,36.66383361816406,4.662433624267578,38.130760192871094
28.100000381469727,48.30188751220703,-39.11798858642578,245.9212646484375,39.944366455078125,-261.9386291503906,420.89691162109375,4.6753339767456055,2.664923667907715,20.127347946166992
28.08571434020996,50.23396301269531,-39.11798858642578,245.9212646484375,39.93865966796875,-262.8560791015625,422.8741760253906,-21.30166244506836,1.6699036359786987,9.120527267456055
28.10714340209961,46.36981201171875,-38.12765884399414,249.9527587890625,38.04104995727539,-262.873046875,422.87139892578125,-41.33616638183594,3.6624338626861572,5.130759239196777
28.117856979370117,49.26792526245117,-34.166343688964844,242.89764404296875,36.11387252807617,-265.77227783203125,419.8377990722656,-56.353416442871094,3.6586992740631104,9.13587474822998
28.135713577270508,49.26792526245117,-41.09864807128906,245.9212646484375,39.928802490234375,-263.81683349609375,421.8638916015625,-67.38217163085938,5.652474403381348,18.14440155029297
28.09642791748047,50.23396301269531,-44.06963348388672,257.00787353515625,38.027042388916016,-263.8770751953125,418.8735656738281,-67.31890869140625,11.666169166564941,29.125642776489258
28.117856979370117,48.30188751220703,-46.05029296875,261.03936767578125,38.97584915161133,-263.86859130859375,418.8749694824219,-54.353416442871094,15.658699035644531,37.1358757019043
28.14642906188965,49.26792526245117,-41.09864807128906,253.9842529296875,39.944366455078125,-261.9386291503906,420.89691162109375,-32.39942169189453,13.648738861083984,42.14951705932617
28.092857360839844,48.30188751220703,-35.156673431396484,244.91339111328125,38.98432159423828,-262.92230224609375,418.889404296875,-19.31316375732422,11.667413711547852,44.12393569946289
28.157142639160156,51.20000076293945,-37.137332916259766,242.89764404296875,37.05558776855469,-266.6956787109375,420.82061767578125,-24.41667366027832,5.645005226135254,41.154632568359375
28.128570556640625,43.47169876098633,-49.021278381347656,240.8818817138672,39.917564392089844,-264.79205322265625,419.8577575683594,-42.37066650390625,3.6549646854400635,35.1409912109375
28.16071319580078,47.33584976196289,-46.05029296875,254.99212646484375,36.13652420043945,-262.9621276855469,417.8893737792969,-48.42242431640625,-2.3562397956848145,28.15633773803711
28.10714340209961,42.50566101074219,-47.040618896484375,243.905517578125,37.056968688964844,-266.6812438964844,421.81646728515625,-34.33616638183594,-8.337566375732422,21.13075828552246
28.121429443359375,47.33584976196289,-50.0116081237793,254.99212646484375,38.00300598144531,-266.70166015625,419.8261413574219,-21.359169006347656,-16.342544555664062,17.13758087158203
28.139286041259766,45.40377426147461,-51.00193405151367,245.9212646484375,38.940574645996094,-267.6683349609375,417.82135009765625,-9.387922286987305,-20.348770141601562,9.146106719970703
28.117856979370117,45.40377426147461,-51.00193405151367,245.9212646484375,36.096923828125,-267.6649169921875,419.8089294433594,10.646581649780273,-21.34130096435547,4.1358747482299805
28.117856979370117,45.40377426147461,-45.05996322631836,248.94488525390625,40.88746643066406,-262.8476257324219,422.87554931640625,31.646583557128906,-23.34130096435547,6.1358747482299805
28.14642906188965,52.166038513183594,-37.137332916259766,249.9527587890625,37.066829681396484,-265.7204895019531,422.82672119140625,34.60057830810547,-21.351259231567383,13.149517059326172
28.28571319580078,46.36981201171875,-36.147003173828125,240.8818817138672,38.019954681396484,-264.80902099609375,419.8550109863281,11.376306533813477,-19.399812698364258,18.216022491455078
28.203571319580078,49.26792526245117,-43.07930374145508,250.96063232421875,38.97014617919922,-264.7861022949219,420.85223388671875,-22.491432189941406,-16.371179580688477,18.176801681518555
28.117856979370117,47.33584976196289,-48.030948638916016,242.89764404296875,37.04002380371094,-268.57391357421875,421.78759765625,-42.353416442871094,-17.34130096435547,12.13587474822998
28.135713577270508,46.36981201171875,-49.021278381347656,243.905517578125,37.051265716552734,-267.59869384765625,423.7937316894531,-9.382169723510742,-18.347524642944336,9.144401550292969
28.11428451538086,49.26792526245117,-46.05029296875,248.94488525390625,38.94334030151367,-267.6394958496094,419.8130798339844,12.652334213256836,-17.340055465698242,5.134169101715088
28.178571701049805,49.26792526245117,-43.07930374145508,247.93701171875,37.059913635253906,-265.7926330566406,417.8474426269531,19.5488224029541,-13.362464904785156,4.164865016937256
28.092857360839844,48.30188751220703,-40.10831832885742,238.8661346435547,37.03725814819336,-268.602783203125,419.7958984375,14.686836242675781,-13.332586288452148,2.1239380836486816
28.110713958740234,50.23396301269531,-40.10831832885742,248.94488525390625,38.9545783996582,-266.664306640625,421.8192138671875,-0.3419160842895508,-11.338810920715332,3.1324639320373535
28.139286041259766,44.43773651123047,-45.05996322631836,253.9842529296875,37.978973388671875,-269.5262145996094,420.7786865234375,-22.387922286987305,-9.348771095275879,6.146106719970703
28.117856979370117,47.33584976196289,-41.09864807128906,237.85826110839844,37.054203033447266,-266.7101135253906,419.82476806640625,-38.353416442871094,-8.341300964355469,8.13587474822998
28.10357093811035,46.36981201171875,-51.99226379394531,260.031494140625,39.88799285888672,-267.6742858886719,416.826904296875,-39.330413818359375,-5.336320877075195,11.129053115844727
28.139286041259766,47.33584976196289,-55.95357894897461,253.9842529296875,38.00162124633789,-266.716064453125,418.8302917480469,-20.387922286987305,-7.348771095275879,14.146106719970703
28.064285278320312,47.33584976196289,-49.021278381347656,256.0,37.052818298339844,-266.72454833984375,418.82891845703125,3.7328414916992188,-9.322627067565918,12.110295295715332
28.128570556640625,45.40377426147461,-47.040618896484375,242.89764404296875,38.94195556640625,-267.6539306640625,418.8172302246094,19.629331588745117,-14.345035552978516,7.140990257263184
28.135713577270508,49.26792526245117,-42.0889778137207,242.89764404296875,36.11387252807617,-265.77227783203125,419.8377990722656,19.617830276489258,-15.347525596618652,3.1444010734558105
28.18214225769043,47.33584976196289,-45.05996322631836,239.87400817871094,41.80393600463867,-265.7502746582031,417.8543701171875,11.543073654174805,-15.363709449768066,-1.8334298133850098
28.18214225769043,49.26792526245117,-50.0116081237793,253.9842529296875,38.961673736572266,-265.732421875,420.8377990722656,3.5430727005004883,-17.36370849609375,-4.83342981338501
28.121429443359375,49.26792526245117,-49.021278381347656,251.968505859375,38.000240325927734,-266.7304992675781,417.83441162109375,-2.3591699600219727,-21.342544555664062,-4.862419605255127
28.11428451538086,43.47169876098633,-43.07930374145508,240.8818817138672,38.01286697387695,-265.74090576171875,420.83642578125,-3.347665309906006,-25.340055465698242,-5.865830898284912
28.132143020629883,44.43773651123047,-45.05996322631836,250.96063232421875,40.81553268432617,-270.4615478515625,419.7725524902344,-13.376420974731445,-25.34627914428711,-1.8573040962219238
28.15357208251953,44.43773651123047,-48.030948638916016,251.968505859375,37.04434585571289,-267.67083740234375,418.8144836425781,-31.410924911499023,-22.353750228881836,1.1529278755187988
28.082141876220703,47.33584976196289,-44.06963348388672,236.8503875732422,39.8949089050293,-267.6021423339844,421.8061828613281,-38.2959098815918,-23.32884979248047,2.118821620941162
28.125,48.30188751220703,-48.030948638916016,247.93701171875,39.92327117919922,-263.8745422363281,417.8804626464844,-29.364919662475586,-21.34379005432129,3.1392855644226074
28.185714721679688,47.33584976196289,-47.040618896484375,250.96063232421875,42.74702835083008,-266.6593017578125,419.83306884765625,-17.462678909301758,-21.364953994750977,3.168275833129883
28.178571701049805,52.166038513183594,-43.07930374145508,251.968505859375,38.956138610839844,-265.7901306152344,416.8543701171875,-8.451177597045898,-21.362464904785156,2.164865016937256
28.128570556640625,50.23396301269531,-44.06963348388672,251.968505859375,39.91047668457031,-265.72393798828125,420.83917236328125,0.6293315887451172,-19.345035552978516,2.1409902572631836
28.139286041259766,45.40377426147461,-47.040618896484375,247.93701171875,38.01009750366211,-265.769775390625,418.8447265625,14.612077713012695,-20.348770141601562,3.146106719970703
28.21071434020996,46.36981201171875,-42.0889778137207,249.9527587890625,42.7442626953125,-266.6881408691406,417.8413391113281,19.497066497802734,-22.373668670654297,9.180212020874023
28.16071319580078,48.30188751220703,-38.12765884399414,243.905517578125,40.84233474731445,-267.6081237792969,420.81170654296875,7.577577590942383,-23.356239318847656,11.15633773803711
28.117856979370117,46.36981201171875,-37.137332916259766,243.905517578125,36.07859420776367,-269.572021484375,418.78424072265625,-21.353416442871094,-21.34130096435547,13.13587474822998
28.117856979370117,47.33584976196289,-42.0889778137207,246.92913818359375,36.09415817260742,-267.6937561035156,417.81719970703125,-49.353416442871094,-22.34130096435547,14.13587474822998
28.125,46.36981201171875,-48.030948638916016,243.905517578125,40.83818435668945,-267.6513977050781,417.8241271972656,-70.36491394042969,-24.34379005432129,10.139286041259766
28.132143020629883,46.36981201171875,-52.98259353637695,241.8897705078125,37.980525970458984,-268.65203857421875,415.8138427734375,-62.37641906738281,-27.34627914428711,3.1426961421966553
28.171428680419922,49.26792526245117,-50.0116081237793,243.905517578125,38.92362976074219,-269.5610046386719,417.7925109863281,-21.43967628479004,-28.359973907470703,-4.838545322418213
28.14285659790039,48.30188751220703,-44.06963348388672,238.8661346435547,39.914798736572266,-264.8208923339844,417.86602783203125,29.60633087158203,-28.350013732910156,-7.852188587188721
28.217857360839844,47.33584976196289,-43.07930374145508,248.94488525390625,42.7202262878418,-269.5126953125,418.7939147949219,69.48556518554688,-25.376157760620117,-9.816377639770508
28.303571701049805,51.20000076293945,-36.147003173828125,243.905517578125,38.947662353515625,-266.7364501953125,416.8399353027344,75.34754943847656,-23.406036376953125,-5.775449275970459
28.139286041259766,48.30188751220703,-35.156673431396484,242.89764404296875,42.696189880371094,-272.3372802734375,419.7464599609375,51.61207962036133,-20.348770141601562,1.1461067199707031
28.157142639160156,50.23396301269531,-38.12765884399414,246.92913818359375,38.953372955322266,-265.8190002441406,414.8626708984375,10.58332633972168,-16.35499382019043,12.154632568359375
28.132143020629883,50.23396301269531,-40.10831832885742,235.84251403808594,40.82538986206055,-269.50079345703125,420.7828369140625,-27.376420974731445,-13.346281051635742,22.142696380615234
28.128570556640625,45.40377426147461,-51.99226379394531,245.9212646484375,37.97758865356445,-269.5406494140625,419.7828369140625,-44.37066650390625,-12.345035552978516,26.140989303588867
28.139286041259766,51.20000076293945,-52.98259353637695,252.97637939453125,39.879520416259766,-268.6206359863281,416.8124694824219,-35.38792419433594,-10.348771095275879,27.146106719970703
28.08928680419922,55.064151763916016,-51.99226379394531,248.94488525390625,41.7869873046875,-267.6429138183594,417.82550048828125,-5.307415008544922,-6.331341743469238,20.12223243713379
28.125,49.26792526245117,-46.05029296875,234.8346405029297,37.984676361083984,-268.6087646484375,418.8014221191406,34.63508224487305,-1.3437907695770264,13.139286041259766
28.14642906188965,49.26792526245117,-46.05029296875,234.8346405029297,38.94195556640625,-267.6539306640625,418.8172302246094,67.60057830810547,0.6487394571304321,9.149517059326172
