Accelerometer offset and scaling compensation: Yes
Gyroscope offset and scaling compensation: Yes
Gyroscope temperature compensation: Yes
Magnetometer hard and soft distortion compensation: Yes
Magnetometer temperature compensation: No
Board calibrated: Yes
Board ID: kj
Accelerometer X min / max: -260.0 / 282.0
Accelerometer Y min / max: -263.0 / 272.0
Accelerometer Z min / max: -281.0 / 249.0
Gyroscope offset X,Y,Z: 8.255013465881348,16.973146438598633,-1.4700441360473633
Gyroscope working temperature: 27.0
Gyroscope temperature sensitivity X,Y,Z: -1.9626615047454834,2.1757822036743164,0.9494237303733826
Magnetometer ellipsoid center: {202.7376251220703,-65.81422424316406,-45.212284088134766}
Magnetometer ellipsoid transform:
{{0.751169741153717,0.050235334783792496,0.05019034817814827},
{0.050235334783792496,0.9106737375259399,-0.02702086791396141},
{0.05019034817814827,-0.02702086791396141,0.9862745404243469}}
Magnetometer working temperature: 30.66659927368164
Magnetometer temperature sensitivity: {-0.16600576043128967,0.12337405234575272,1.5230705738067627}
temp,ax,ay,az,mx,my,mz,gx,gy,gz
31.689285278320312,-256.94464111328125,-22.48971939086914,39.607547760009766,-407.5931701660156,8.541183471679688,-135.25152587890625,-134.05154418945312,-38.17601013183594,97.01792907714844
31.674999237060547,-260.7232360839844,-34.930843353271484,41.53962326049805,-407.9424133300781,16.714035034179688,-136.5311737060547,-135.07957458496094,-63.144927978515625,66.031494140625
31.72142791748047,-267.3357849121094,-43.54392623901367,43.47169876098633,-407.99267578125,14.865663528442383,-135.49085998535156,-85.98844909667969,-75.24594116210938,23.987407684326172
31.671428680419922,-267.3357849121094,-36.8448600769043,31.87924575805664,-408.7940979003906,13.904756546020508,-135.5140380859375,-2.086580276489258,-76.13715362548828,3.034878730773926
31.639286041259766,-261.66790771484375,-22.48971939086914,29.94717025756836,-408.1935729980469,12.160662651062012,-136.3960723876953,79.85033416748047,-64.06722259521484,37.06539535522461
31.657142639160156,-256.94464111328125,-18.66168212890625,32.84528350830078,-409.6958923339844,12.997886657714844,-137.50975036621094,112.88538360595703,-58.10607147216797,99.04844665527344
31.703571319580078,-255.05535888671875,-23.44672966003418,38.641510009765625,-408.74395751953125,12.94003963470459,-133.51446533203125,104.97650909423828,-54.20709228515625,138.00436401367188
31.65357208251953,-256.0,-29.188785552978516,40.573585510253906,-412.24871826171875,15.366842269897461,-131.87393188476562,93.87837219238281,-46.098304748535156,142.0518341064453
31.700000762939453,-259.7785949707031,-36.8448600769043,42.50566101074219,-412.29888916015625,15.3938627243042,-132.86019897460938,112.96949768066406,-44.19932556152344,124.00775146484375
31.703571319580078,-260.7232360839844,-42.586917877197266,43.47169876098633,-412.34912109375,14.483187675476074,-132.8331756591797,150.97650146484375,-43.20709228515625,97.00436401367188
31.714284896850586,-260.7232360839844,-39.71588897705078,38.641510009765625,-412.24871826171875,15.366842269897461,-131.87393188476562,189.99752807617188,-49.23040008544922,75.99419403076172
31.689285278320312,-260.7232360839844,-36.8448600769043,36.709434509277344,-411.34686279296875,18.149099349975586,-131.90480041503906,213.94845581054688,-61.17601013183594,72.01792907714844
31.71071434020996,-259.7785949707031,-32.059814453125,33.81132125854492,-410.79656982421875,15.494332313537598,-132.75982666015625,218.9905242919922,-70.2226333618164,78.9975814819336
31.696428298950195,-258.8339538574219,-32.059814453125,30.9132080078125,-412.9496765136719,16.22728157043457,-131.95114135742188,208.9624786376953,-71.1915512084961,91.01114654541016
31.696428298950195,-256.94464111328125,-33.97383117675781,33.81132125854492,-410.6460266113281,15.413269996643066,-129.80099487304688,192.9624786376953,-69.1915512084961,97.01114654541016
31.657142639160156,-256.94464111328125,-36.8448600769043,36.709434509277344,-415.1529541015625,16.987247467041016,-132.12872314453125,179.8853759765625,-74.10607147216797,97.04844665527344
31.71071434020996,-254.11070251464844,-36.8448600769043,36.709434509277344,-412.24871826171875,15.366842269897461,-131.87393188476562,177.9905242919922,-84.2226333618164,89.9975814819336
31.678571701049805,-253.1660614013672,-33.016822814941406,36.709434509277344,-413.3492736816406,20.676372528076172,-130.16387939453125,181.92742919921875,-95.15269470214844,86.0280990600586
31.674999237060547,-251.27674865722656,-32.059814453125,38.641510009765625,-413.60040283203125,17.06069564819336,-131.0420684814453,188.92042541503906,-104.14492797851562,91.031494140625
31.671428680419922,-252.22140502929688,-27.27476692199707,38.641510009765625,-412.4977722167969,19.7348690032959,-127.12785339355469,191.9134063720703,-114.13715362548828,102.03488159179688
31.667858123779297,-253.1660614013672,-25.360748291015625,40.573585510253906,-413.299072265625,20.649351119995117,-129.1776123046875,183.90640258789062,-123.12938690185547,110.03826904296875
31.674999237060547,-256.94464111328125,-26.317758560180664,36.709434509277344,-415.15087890625,24.03325843811035,-125.49117279052734,172.92042541503906,-131.14492797851562,105.031494140625
31.69285774230957,-258.8339538574219,-24.40373992919922,37.675472259521484,-413.19873046875,19.65761375427246,-126.1917724609375,171.95547485351562,-136.18377685546875,93.01453399658203
31.72142791748047,-255.05535888671875,-23.44672966003418,38.641510009765625,-413.54815673828125,24.079689025878906,-123.41824340820312,180.0115509033203,-140.24594116210938,83.98741149902344
31.707141876220703,-254.11070251464844,-23.44672966003418,36.709434509277344,-417.70587158203125,17.48081398010254,-124.46632385253906,186.98350524902344,-146.21485900878906,84.0009765625
31.696428298950195,-254.11070251464844,-22.48971939086914,36.709434509277344,-416.5528869628906,22.941049575805664,-122.60570526123047,188.9624786376953,-150.19154357910156,87.01114654541016
31.746429443359375,-252.22140502929688,-24.40373992919922,38.641510009765625,-417.4045104980469,21.069469451904297,-122.60185241699219,189.06060791015625,-153.3003387451172,86.96367645263672
31.685714721679688,-252.22140502929688,-29.188785552978516,40.573585510253906,-418.0049743652344,23.75125503540039,-122.73310852050781,193.9414520263672,-158.16824340820312,78.02131652832031
31.553571701049805,-250.3321075439453,-28.23177719116211,43.47169876098633,-416.50274658203125,21.97633171081543,-120.60613250732422,208.68209838867188,-155.88072204589844,55.14677429199219
31.700000762939453,-253.1660614013672,-30.145795822143555,44.43773651123047,-417.0028381347656,24.60407829284668,-118.76483917236328,229.96949768066406,-150.19932556152344,32.00775146484375
31.649999618530273,-254.11070251464844,-27.27476692199707,40.573585510253906,-418.555419921875,23.59293556213379,-118.83819580078125,252.87135314941406,-144.0905303955078,17.055225372314453
31.739286422729492,-254.11070251464844,-28.23177719116211,42.50566101074219,-419.6079406738281,19.01634979248047,-119.73956298828125,280.0466003417969,-141.28480529785156,11.970453262329102
31.72857093811035,-255.05535888671875,-25.360748291015625,40.573585510253906,-417.6536560058594,23.562108993530273,-115.82918548583984,308.02557373046875,-134.26148986816406,11.980626106262207
31.64642906188965,-254.11070251464844,-28.23177719116211,42.50566101074219,-421.5099792480469,21.489582061767578,-116.02609252929688,346.8643493652344,-126.082763671875,18.058612823486328
31.714284896850586,-256.0,-29.188785552978516,41.53962326049805,-420.8592529296875,20.656166076660156,-116.9351577758789,388.9975280761719,-115.23040008544922,19.994190216064453
31.714284896850586,-257.8893127441406,-28.23177719116211,42.50566101074219,-419.35693359375,19.818941116333008,-115.82147979736328,436.9975280761719,-98.23040008544922,16.994190216064453
31.71071434020996,-256.94464111328125,-26.317758560180664,43.47169876098633,-421.6104736328125,18.730539321899414,-114.95875549316406,483.99053955078125,-85.2226333618164,9.997580528259277
31.674999237060547,-256.94464111328125,-27.27476692199707,42.50566101074219,-423.76361083984375,18.525793075561523,-113.13677978515625,519.92041015625,-74.14492797851562,2.0314888954162598
31.621429443359375,-257.8893127441406,-27.27476692199707,41.53962326049805,-421.4598693847656,19.587173461914062,-113.01322937011719,554.8153076171875,-59.02836608886719,-1.9176506996154785
31.689285278320312,-261.66790771484375,-25.360748291015625,42.50566101074219,-421.610595703125,16.855152130126953,-112.93216705322266,577.948486328125,-48.17601013183594,-5.982074737548828
31.717857360839844,-263.55718994140625,-26.317758560180664,44.43773651123047,-423.21331787109375,16.8087215423584,-115.00509643554688,594.0045776367188,-39.23817443847656,-10.009202003479004
31.700000762939453,-264.5018615722656,-25.360748291015625,47.33584976196289,-420.1583557128906,17.920339584350586,-114.83135986328125,609.969482421875,-39.19932556152344,-13.992247581481934
31.674999237060547,-266.3911437988281,-29.188785552978516,50.23396301269531,-422.5625915527344,15.03761100769043,-114.90086364746094,623.92041015625,-39.144927978515625,-20.968509674072266
31.69285774230957,-269.22509765625,-27.27476692199707,49.26792526245117,-420.9097595214844,14.11932373046875,-110.82836151123047,635.9555053710938,-42.18378448486328,-32.98546600341797
31.689285278320312,-268.28045654296875,-26.317758560180664,45.40377426147461,-420.85955810546875,14.092303276062012,-109.84208679199219,654.948486328125,-49.17601013183594,-44.98207473754883
31.59642791748047,-272.0590515136719,-25.360748291015625,47.33584976196289,-422.4622497558594,14.045873641967773,-111.91502380371094,676.7662353515625,-51.973968505859375,-54.89391326904297
31.678571701049805,-273.0036926269531,-25.360748291015625,40.573585510253906,-421.7613830566406,12.24774169921875,-110.82450866699219,692.9274291992188,-45.15270233154297,-56.97190475463867
31.66428565979004,-272.0590515136719,-24.40373992919922,38.641510009765625,-421.1608581542969,10.50364875793457,-111.70655822753906,711.8994140625,-31.12161636352539,-58.95833969116211
31.72142791748047,-272.0590515136719,-20.575700759887695,38.641510009765625,-422.5627746582031,11.28683090209961,-110.84768676757812,738.0115356445312,-22.24594497680664,-58.01259231567383
31.725000381469727,-270.16973876953125,-22.48971939086914,37.675472259521484,-423.5650939941406,7.620920181274414,-111.77606201171875,767.0185546875,-11.253718376159668,-55.01598358154297
31.725000381469727,-270.16973876953125,-24.40373992919922,37.675472259521484,-424.71588134765625,11.082084655761719,-109.02570343017578,790.0185546875,1.7462825775146484,-58.01598358154297
31.64285659790039,-277.7269287109375,-27.27476692199707,43.47169876098633,-426.41925048828125,6.401224136352539,-108.00470733642578,800.8573608398438,10.925008773803711,-63.937992095947266
31.71071434020996,-277.7269287109375,-28.23177719116211,46.36981201171875,-424.96710205078125,6.528716564178467,-108.89059448242188,818.9905395507812,15.777364730834961,-73.0024185180664
31.69285774230957,-273.0036926269531,-29.188785552978516,42.50566101074219,-425.3689270019531,0.18101978302001953,-109.68772888183594,867.9555053710938,9.816217422485352,-95.98546600341797
31.546428680419922,-268.28045654296875,-21.532711029052734,38.641510009765625,-423.81634521484375,1.192164421081543,-109.61436462402344,938.6680908203125,0.13481521606445312,-127.846435546875
31.639286041259766,-266.3911437988281,-18.66168212890625,31.87924575805664,-425.3689270019531,0.18101978302001953,-109.68772888183594,986.850341796875,8.932777404785156,-161.93460083007812
31.735713958740234,-271.1143798828125,-18.66168212890625,31.87924575805664,-425.5698547363281,-3.461674690246582,-109.57964324951172,1022.03955078125,40.72296905517578,-193.02615356445312
31.735713958740234,-277.7269287109375,-21.532711029052734,28.98113250732422,-423.9671936035156,-4.352941036224365,-106.49341583251953,1036.03955078125,80.72297668457031,-211.02615356445312
31.667858123779297,-278.6716003417969,-22.48971939086914,31.87924575805664,-424.0174255371094,-5.263614177703857,-106.46640014648438,1040.9063720703125,120.87060546875,-239.96173095703125
31.742856979370117,-277.7269287109375,-17.704673767089844,32.84528350830078,-425.1202392578125,-11.68856430053711,-106.32743835449219,1057.0535888671875,145.70742797851562,-258.032958984375
31.667858123779297,-271.1143798828125,-11.005607604980469,31.87924575805664,-423.71832275390625,-12.471748352050781,-107.18631744384766,1102.9063720703125,169.87060546875,-275.96173095703125
31.64285659790039,-267.3357849121094,-6.2205610275268555,29.94717025756836,-424.0699462890625,-17.908769607543945,-108.01046752929688,1097.8572998046875,209.92501831054688,-294.9380187988281
31.66071319580078,-267.3357849121094,-9.091588973999023,31.87924575805664,-422.56756591796875,-16.870601654052734,-108.92337799072266,1066.8924560546875,315.88616943359375,-319.9549560546875
31.64642906188965,-267.3357849121094,-10.048598289489746,35.7433967590332,-422.9693908691406,-23.218299865722656,-109.72050476074219,1029.8643798828125,354.917236328125,-360.94140625
31.725000381469727,-267.3357849121094,-11.005607604980469,38.641510009765625,-421.6177062988281,-24.912155151367188,-110.55236053466797,996.0185546875,375.74627685546875,-404.0159912109375
31.635713577270508,-265.4465026855469,-11.005607604980469,41.53962326049805,-421.8688049316406,-27.59013557434082,-112.44384765625,946.8433227539062,382.9405517578125,-448.93121337890625
31.703571319580078,-262.612548828125,-15.790655136108398,40.573585510253906,-421.96929931640625,-30.349178314208984,-111.37651062011719,895.9765014648438,388.79290771484375,-495.9956359863281
31.674999237060547,-259.7785949707031,-19.61869239807129,37.675472259521484,-419.1654968261719,-31.91554069519043,-113.09425354003906,848.92041015625,397.8550720214844,-544.968505859375
31.71071434020996,-258.8339538574219,-24.40373992919922,37.675472259521484,-421.2203674316406,-41.095726013183594,-113.91070556640625,804.9905395507812,408.7773742675781,-593.00244140625
31.72142791748047,-259.7785949707031,-34.930843353271484,34.77735900878906,-419.91888427734375,-42.7625617980957,-115.72882843017578,774.0115356445312,418.7540588378906,-646.0126342773438
31.739286422729492,-260.7232360839844,-41.62990951538086,36.709434509277344,-415.763427734375,-46.960479736328125,-117.26513671875,766.046630859375,428.7152099609375,-702.029541015625
31.71071434020996,-256.94464111328125,-45.45794677734375,35.7433967590332,-417.01678466796875,-53.30437088012695,-120.08499908447266,781.9905395507812,442.7773742675781,-753.00244140625
31.696428298950195,-252.22140502929688,-49.28598403930664,36.709434509277344,-415.11492919921875,-59.528377532958984,-119.74528503417969,803.9625244140625,452.8084411621094,-793.9888916015625
31.73214340209961,-249.387451171875,-57.89906692504883,38.641510009765625,-412.3615417480469,-65.75619506835938,-117.38282775878906,808.0325927734375,457.7307434082031,-839.0227661132812
31.72142791748047,-248.44281005859375,-67.46916198730469,41.53962326049805,-415.1172180175781,-71.26285552978516,-121.31637573242188,790.0115356445312,456.7540588378906,-917.0126342773438
31.685714721679688,-252.22140502929688,-77.03925323486328,43.47169876098633,-409.7105407714844,-78.9759750366211,-123.63048553466797,759.9414672851562,450.8317565917969,-1020.9786987304688
31.69285774230957,-256.94464111328125,-82.78131103515625,39.607547760009766,-408.6601867675781,-84.25849151611328,-126.32679748535156,734.9555053710938,442.81622314453125,-1125.9854736328125
31.717857360839844,-255.05535888671875,-83.73831939697266,38.641510009765625,-406.7081298828125,-90.50951385498047,-125.00080871582031,722.0045776367188,427.7618408203125,-1200.0091552734375
31.667858123779297,-246.5535125732422,-80.86729431152344,36.709434509277344,-404.1053161621094,-96.6562728881836,-125.59716796875,727.9064331054688,413.87060546875,-1223.961669921875
31.667858123779297,-236.16236877441406,-80.86729431152344,30.9132080078125,-401.7032775878906,-103.63263702392578,-129.12533569335938,748.9064331054688,404.87060546875,-1207.961669921875
31.639286041259766,-231.43911743164062,-85.65233612060547,30.9132080078125,-398.6506042480469,-114.25550842285156,-130.52268981933594,766.850341796875,395.9327697753906,-1179.9345703125
31.657142639160156,-234.2730712890625,-96.179443359375,28.98113250732422,-396.7989807128906,-121.39019012451172,-130.15594482421875,773.8853759765625,384.8939208984375,-1173.9515380859375
31.685714721679688,-237.1070098876953,-105.7495346069336,33.81132125854492,-394.8468933105469,-126.70352935791016,-129.84326171875,786.9414672851562,375.8317565917969,-1206.9786376953125
31.746429443359375,-239.9409637451172,-109.57757568359375,34.77735900878906,-392.8948669433594,-133.89224243164062,-127.50396728515625,812.0606079101562,363.69964599609375,-1267.0362548828125
31.717857360839844,-238.05166625976562,-110.53458404541016,41.53962326049805,-387.6388854980469,-143.3997039794922,-130.7503204345703,839.0045776367188,342.7618408203125,-1334.0091552734375
31.707141876220703,-238.05166625976562,-110.53458404541016,45.40377426147461,-385.8375244140625,-152.38275146484375,-129.34326171875,848.9835205078125,308.7851257324219,-1395.9990234375
31.69285774230957,-238.99630737304688,-111.49159240722656,47.33584976196289,-384.28729248046875,-164.0437774658203,-129.82769775390625,842.9555053710938,260.81622314453125,-1470.9854736328125
31.64285659790039,-238.05166625976562,-107.6635513305664,44.43773651123047,-376.4263000488281,-170.77658081054688,-129.05943298339844,827.8573608398438,205.92501831054688,-1553.93798828125
31.689285278320312,-231.43911743164062,-99.05046844482422,42.50566101074219,-372.0701599121094,-176.95797729492188,-124.6240463256836,821.948486328125,154.82398986816406,-1621.9820556640625
31.700000762939453,-228.60516357421875,-93.30841064453125,32.84528350830078,-368.0153503417969,-186.72801208496094,-122.0531234741211,795.969482421875,113.80067443847656,-1661.9921875
31.703571319580078,-229.54981994628906,-87.56636047363281,32.84528350830078,-364.7117004394531,-196.54827880859375,-119.53239440917969,746.9765014648438,95.79290771484375,-1677.99560546875
31.68214225769043,-226.7158660888672,-83.73831939697266,29.94717025756836,-362.10882568359375,-201.75733947753906,-121.14205932617188,673.9344482421875,85.83953094482422,-1669.9752197265625
31.725000381469727,-226.7158660888672,-85.65233612060547,34.77735900878906,-357.35308837890625,-212.3878173828125,-118.49392700195312,570.0185546875,62.74628448486328,-1645.0159912109375
31.703571319580078,-221.9926300048828,-96.179443359375,37.675472259521484,-353.24798583984375,-220.3094940185547,-116.96332550048828,459.97650146484375,26.792905807495117,-1621.99560546875
31.714284896850586,-215.3800811767578,-100.96449279785156,41.53962326049805,-346.9396057128906,-228.9911346435547,-115.255126953125,355.9975280761719,-16.230403900146484,-1615.0057373046875
31.678571701049805,-209.71217346191406,-115.31963348388672,42.50566101074219,-344.3367919921875,-236.07557678222656,-114.83820343017578,280.9274597167969,-67.15270233154297,-1620.9718017578125
31.66071319580078,-206.87823486328125,-129.67477416992188,39.607547760009766,-337.1265869140625,-241.97496032714844,-113.16087341308594,215.8923797607422,-112.11383819580078,-1646.9549560546875
31.671428680419922,-206.87823486328125,-138.28785705566406,39.607547760009766,-333.1721496582031,-251.69097900390625,-112.56250762939453,184.9134063720703,-138.1371612548828,-1700.965087890625
31.707141876220703,-206.87823486328125,-144.0299072265625,34.77735900878906,-326.9641418457031,-260.318603515625,-112.82685852050781,201.98350524902344,-157.21485900878906,-1764.9990234375
31.64285659790039,-201.2103271484375,-144.0299072265625,24.150943756103516,-321.0555114746094,-267.3642272949219,-106.29151916503906,236.85733032226562,-146.07498168945312,-1817.93798828125
31.700000762939453,-197.43173217773438,-142.1158905029297,22.218868255615234,-314.09637451171875,-275.94158935546875,-106.50568389892578,281.9695129394531,-115.19932556152344,-1837.9921875
31.678571701049805,-196.48709106445312,-144.0299072265625,26.083019256591797,-307.8382263183594,-284.5962219238281,-105.78376007080078,297.9274597167969,-65.15270233154297,-1818.9718017578125
31.69285774230957,-193.65313720703125,-143.07290649414062,27.049057006835938,-302.1302795410156,-289.6583557128906,-105.2201156616211,283.9554748535156,-13.183782577514648,-1790.9854736328125
31.700000762939453,-189.87454223632812,-142.1158905029297,35.7433967590332,-295.52056884765625,-293.8136291503906,-102.6607437133789,237.96949768066406,9.800676345825195,-1769.9921875
31.746429443359375,-184.20664978027344,-144.98692321777344,39.607547760009766,-290.8651123046875,-303.452392578125,-102.99845886230469,160.06060791015625,-1.3003435134887695,-1764.0362548828125
31.725000381469727,-184.20664978027344,-151.6859893798828,42.50566101074219,-281.4517517089844,-312.9248352050781,-98.10365295410156,86.01856231689453,-30.253719329833984,-1775.0159912109375
31.717857360839844,-180.42803955078125,-156.47103881835938,36.709434509277344,-273.43994140625,-314.11248779296875,-100.45634460449219,22.00454330444336,-54.23817443847656,-1799.0091552734375
31.689285278320312,-180.42803955078125,-160.299072265625,31.87924575805664,-264.9784240722656,-322.58941650390625,-100.57012939453125,-36.05153274536133,-55.17601013183594,-1823.9820556640625
31.703571319580078,-177.59410095214844,-166.04112243652344,23.184906005859375,-259.2703552246094,-324.8384704589844,-103.0463638305664,-95.02349090576172,-44.20709228515625,-1834.99560546875
31.685714721679688,-172.870849609375,-173.69720458984375,20.286792755126953,-250.80882263183594,-332.377685546875,-104.17344665527344,-153.0585479736328,-26.168241500854492,-1833.9786376953125
31.707141876220703,-160.5904083251953,-179.4392547607422,15.45660400390625,-244.60079956054688,-340.0675964355469,-105.45108795166016,-193.01649475097656,1.7851390838623047,-1829.9990234375
31.678571701049805,-151.1439208984375,-184.22430419921875,12.558490753173828,-233.4840087890625,-342.9837951660156,-103.60387420654297,-222.07257080078125,40.84729766845703,-1829.9718017578125
31.696428298950195,-147.3653106689453,-190.92337036132812,11.592453002929688,-224.12066650390625,-349.6161193847656,-102.73523712158203,-256.0375061035156,80.8084487915039,-1850.98876953125
31.714284896850586,-148.30996704101562,-197.6224365234375,13.524528503417969,-216.56089782714844,-357.1244812011719,-106.87132263183594,-290.0024719238281,119.76959228515625,-1887.0057373046875
31.717857360839844,-151.1439208984375,-205.27850341796875,17.38867950439453,-207.7979278564453,-359.19964599609375,-108.1605224609375,-323.9954528808594,130.76182556152344,-1911.0091552734375
31.69285774230957,-158.70111083984375,-210.0635528564453,24.150943756103516,-196.93218994140625,-363.8561096191406,-109.21809387207031,-363.0445251464844,123.81622314453125,-1916.9854736328125
31.69285774230957,-162.47970581054688,-213.8916015625,23.184906005859375,-190.57330322265625,-366.00091552734375,-113.61669158935547,-404.0445251464844,105.81622314453125,-1914.9854736328125
31.657142639160156,-165.31365966796875,-204.32150268554688,30.9132080078125,-181.20994567871094,-371.6955261230469,-113.76134490966797,-435.1146240234375,83.89392852783203,-1896.9515380859375
31.667858123779297,-164.36900329589844,-203.36448669433594,31.87924575805664,-171.54530334472656,-374.7392272949219,-111.02823638916016,-449.09356689453125,40.87061309814453,-1846.961669921875
31.68214225769043,-166.25830078125,-200.49346923828125,35.7433967590332,-161.0308837890625,-379.20654296875,-118.98973083496094,-493.0655517578125,26.83953285217285,-1794.9752197265625
31.66071319580078,-163.4243621826172,-204.32150268554688,40.573585510253906,-154.3707275390625,-378.70037841796875,-120.51056671142578,-569.1076049804688,-1.1138429641723633,-1741.9549560546875
31.725000381469727,-153.9778594970703,-207.19253540039062,40.573585510253906,-147.26083374023438,-383.6080322265625,-121.81908416748047,-623.9814453125,-34.25371551513672,-1688.0159912109375
31.64285659790039,-142.64207458496094,-212.93458557128906,38.641510009765625,-141.50241088867188,-383.071044921875,-126.34893035888672,-586.1426391601562,-76.07498931884766,-1642.93798828125
31.73214340209961,-134.14022827148438,-225.37570190429688,36.709434509277344,-130.7371826171875,-390.4865417480469,-126.33917236328125,-505.9674072265625,-123.26925659179688,-1601.022705078125
31.717857360839844,-126.5830307006836,-237.81683349609375,38.641510009765625,-124.1272201538086,-389.953369140625,-128.8462677001953,-415.9954528808594,-145.23817443847656,-1585.0091552734375
31.739286422729492,-116.19188690185547,-240.68785095214844,44.43773651123047,-117.51730346679688,-390.3578796386719,-130.340087890625,-255.95339965820312,-196.28480529785156,-1603.029541015625
31.714284896850586,-88.79705047607422,-225.37570190429688,36.709434509277344,-107.1517333984375,-394.26202392578125,-127.52976989746094,-87.0024642944336,-259.23040771484375,-1604.0057373046875
31.71071434020996,-82.18450164794922,-216.7626190185547,31.87924575805664,-102.04429626464844,-397.5800476074219,-126.0840835571289,53.99052429199219,-271.2226257324219,-1587.0023193359375
31.66071319580078,-79.35055541992188,-208.1495361328125,24.150943756103516,-96.7862777709961,-400.97918701171875,-121.67957305908203,155.8923797607422,-264.1138610839844,-1544.9549560546875
31.68214225769043,-85.01844787597656,-199.5364532470703,26.083019256591797,-87.1716537475586,-400.2450866699219,-123.98591613769531,199.93443298339844,-243.16046142578125,-1501.9752197265625
31.72142791748047,-88.79705047607422,-191.88038635253906,23.184906005859375,-80.4112548828125,-402.6060485839844,-120.49432373046875,240.0115509033203,-218.24594116210938,-1462.0125732421875
31.72857093811035,-93.52029418945312,-188.05233764648438,28.98113250732422,-72.39952087402344,-405.6691589355469,-120.8204116821289,251.0255584716797,-189.26148986816406,-1420.019287109375
31.700000762939453,-93.52029418945312,-186.13832092285156,32.84528350830078,-67.09123229980469,-407.21990966796875,-117.45622253417969,223.96949768066406,-175.19932556152344,-1381.9921875
31.678571701049805,-85.01844787597656,-192.83738708496094,25.116981506347656,-59.68000793457031,-408.5389099121094,-116.90027618408203,234.92742919921875,-207.15269470214844,-1332.9718017578125
31.72857093811035,-76.51660919189453,-195.7084197998047,24.150943756103516,-55.122798919677734,-408.2644958496094,-115.61285400390625,196.0255584716797,-230.26148986816406,-1278.019287109375
31.739286422729492,-68.95941162109375,-194.75140380859375,23.184906005859375,-50.11587142944336,-414.34161376953125,-113.0998306274414,123.0466079711914,-223.28480529785156,-1231.029541015625
31.753570556640625,-67.07011413574219,-195.7084197998047,19.320755004882812,-41.70234680175781,-411.99468994140625,-111.6155014038086,63.07463836669922,-223.3158721923828,-1191.0430908203125
31.725000381469727,-67.07011413574219,-190.92337036132812,18.354717254638672,-38.24773025512695,-413.456787109375,-115.25560760498047,32.01856231689453,-222.25372314453125,-1140.0159912109375
31.717857360839844,-69.90406036376953,-189.0093536376953,19.320755004882812,-32.83892822265625,-412.24853515625,-112.95874786376953,-13.99545669555664,-240.23817443847656,-1093.0091552734375
31.717857360839844,-66.1254653930664,-192.83738708496094,19.320755004882812,-28.4323787689209,-413.7684631347656,-112.60356140136719,-70.9954605102539,-254.23817443847656,-1052.0091552734375
31.649999618530273,-58.568267822265625,-204.32150268554688,24.150943756103516,-22.724342346191406,-416.9552001953125,-114.0665054321289,-158.12864685058594,-274.0905456542969,-1023.9447631835938
31.66428565979004,-48.1771240234375,-207.19253540039062,22.218868255615234,-18.016292572021484,-411.1357116699219,-115.90003967285156,-266.1005859375,-291.1216125488281,-1017.9583740234375
31.71071434020996,-34.952030181884766,-203.36448669433594,23.184906005859375,-13.760225296020508,-410.69921875,-120.53026580810547,-357.00946044921875,-306.2226257324219,-1027.0023193359375
31.717857360839844,-24.56088638305664,-194.75140380859375,21.252830505371094,-10.155038833618164,-412.2423400878906,-121.2115478515625,-415.9954528808594,-298.2381591796875,-1026.0091552734375
31.71071434020996,-22.671586990356445,-205.27850341796875,13.524528503417969,-2.042788505554199,-412.54638671875,-122.60498809814453,-417.00946044921875,-277.2226257324219,-993.00244140625
31.700000762939453,-23.616235733032227,-218.6766357421875,9.660377502441406,0.8113646507263184,-411.32672119140625,-126.3763427734375,-436.0304870605469,-245.19932556152344,-921.9922485351562
31.66071319580078,-25.505535125732422,-230.16075134277344,9.660377502441406,4.717831134796143,-410.2189025878906,-124.17986297607422,-440.10760498046875,-211.1138458251953,-853.9549560546875
31.71071434020996,-22.671586990356445,-232.07476806640625,4.830188751220703,6.871094226837158,-407.2010803222656,-129.04171752929688,-414.00946044921875,-162.22262573242188,-790.00244140625
31.685714721679688,-23.616235733032227,-229.20375061035156,12.558490753173828,14.882875442504883,-409.3264465332031,-130.38111877441406,-333.05853271484375,-104.16824340820312,-764.9786987304688
31.714284896850586,-23.616235733032227,-226.3327178955078,11.592453002929688,14.68206787109375,-410.15606689453125,-133.31292724609375,-164.00247192382812,-90.23040008544922,-735.0057983398438
31.72857093811035,-24.56088638305664,-221.54766845703125,14.49056625366211,21.291980743408203,-410.560546875,-134.80674743652344,-163.9744415283203,-110.26148223876953,-711.0194091796875
31.717857360839844,-18.892990112304688,-220.59066772460938,21.252830505371094,22.94498062133789,-408.665771484375,-133.7741241455078,-218.99546813964844,-207.23817443847656,-681.0092163085938
31.72857093811035,-12.28044319152832,-228.24673461914062,28.015094757080078,25.248767852783203,-406.6667175292969,-134.66387939453125,-302.97442626953125,-266.2615051269531,-654.0194091796875
31.703571319580078,-1.889298915863037,-244.51589965820312,21.252830505371094,26.500112533569336,-407.36883544921875,-138.4815673828125,-349.02349853515625,-253.20709228515625,-642.9956665039062
31.753570556640625,11.335793495178223,-250.25794982910156,18.354717254638672,32.609893798828125,-406.0832824707031,-137.12078857421875,-327.92535400390625,-228.3158721923828,-655.0430908203125
31.707141876220703,17.948339462280273,-249.3009490966797,17.38867950439453,36.31559371948242,-404.8674011230469,-138.86940002441406,-236.01649475097656,-202.21485900878906,-669.9990234375
31.696428298950195,15.114391326904297,-249.3009490966797,12.558490753173828,39.470985412597656,-401.9344482421875,-138.7497100830078,-125.03751373291016,-158.19154357910156,-685.9888916015625
31.72857093811035,0.9446494579315186,-241.64486694335938,11.592453002929688,39.169708251953125,-404.58538818359375,-141.62747192382812,-37.974430084228516,-121.26148223876953,-699.0194091796875
31.717857360839844,-8.501845359802246,-225.37570190429688,15.45660400390625,45.9301872253418,-405.07098388671875,-140.16246032714844,39.00454330444336,-111.23817443847656,-691.0092163085938
31.671428680419922,-8.501845359802246,-216.7626190185547,20.286792755126953,47.43257141113281,-404.0328063964844,-141.07537841796875,68.91342163085938,-139.1371612548828,-647.9651489257812
31.703571319580078,-6.612545967102051,-211.02056884765625,15.45660400390625,49.63584899902344,-404.7927551269531,-140.89779663085938,39.976505279541016,-172.20709228515625,-597.9956665039062
31.68214225769043,-1.889298915863037,-209.10655212402344,14.49056625366211,51.28880310058594,-403.8356628417969,-138.8518829345703,-24.0655517578125,-184.16046142578125,-548.9752807617188
31.735713958740234,0.0,-208.1495361328125,12.558490753173828,54.7434196472168,-405.2977600097656,-142.4919891357422,-106.96041107177734,-174.2770233154297,-505.0261535644531
31.73214340209961,-1.889298915863037,-207.19253540039062,14.49056625366211,56.94682312011719,-403.24462890625,-145.35427856445312,-157.96742248535156,-166.26925659179688,-456.02276611328125
31.66428565979004,0.0,-209.10655212402344,13.524528503417969,57.64767837524414,-405.98046875,-143.25047302246094,-203.10060119628906,-179.12161254882812,-405.9583435058594
31.707141876220703,5.667896747589111,-219.63365173339844,9.660377502441406,60.803016662597656,-403.9851989746094,-142.11749267578125,-224.01649475097656,-191.21485900878906,-362.9990539550781
31.717857360839844,18.892990112304688,-229.20375061035156,1.9320755004882812,60.95384979248047,-398.4400634765625,-145.23843383789062,-215.99546813964844,-200.23817443847656,-327.00921630859375
31.678571701049805,31.173431396484375,-231.11776733398438,-4.830188751220703,63.80796432495117,-398.1580810546875,-147.99647521972656,-142.07257080078125,-203.15269470214844,-293.971923828125
31.696428298950195,39.67527770996094,-226.3327178955078,-15.45660400390625,63.75763702392578,-400.94415283203125,-145.94287109375,-30.037513732910156,-194.19154357910156,-271.9888610839844
31.72857093811035,42.50922393798828,-217.71963500976562,-18.354717254638672,66.16180419921875,-398.9991149902344,-144.86007690429688,58.02557373046875,-170.26148986816406,-258.0193786621094
31.746429443359375,40.61992645263672,-214.84860229492188,-9.660377502441406,66.11161804199219,-398.97210693359375,-145.84634399414062,122.06061553955078,-156.3003387451172,-244.0363311767578
31.703571319580078,30.228782653808594,-218.6766357421875,-11.592453002929688,66.76235961914062,-399.8055114746094,-146.7554168701172,118.97650909423828,-154.20709228515625,-235.99563598632812
31.707141876220703,19.83763885498047,-220.59066772460938,-11.592453002929688,66.6618423461914,-402.5645751953125,-145.6880645751953,49.98351287841797,-151.21485900878906,-235.9990234375
31.667858123779297,17.003690719604492,-219.63365173339844,-13.524528503417969,69.01582336425781,-400.5924987792969,-145.59153747558594,-22.09358787536621,-169.12939453125,-213.96173095703125
31.717857360839844,18.892990112304688,-222.5046844482422,-8.694339752197266,67.36282348632812,-402.4872741699219,-146.62416076660156,-84.99545288085938,-200.23817443847656,-163.0092010498047
31.73214340209961,19.83763885498047,-233.0317840576172,-8.694339752197266,68.86530303955078,-399.57373046875,-149.56365966796875,-156.96742248535156,-224.26925659179688,-100.02276611328125
31.66071319580078,31.173431396484375,-241.64486694335938,-12.558490753173828,68.41536712646484,-397.91070556640625,-145.72279357910156,-206.1076202392578,-228.1138458251953,-52.95494842529297
31.739286422729492,38.730628967285156,-243.5588836669922,-9.660377502441406,69.01591491699219,-398.71710205078125,-147.61813354492188,-235.95339965820312,-221.28480529785156,-31.02954864501953
31.72142791748047,41.5645751953125,-245.472900390625,-11.592453002929688,66.76244354248047,-397.9301452636719,-148.78199768066406,-247.9884490966797,-202.24594116210938,-25.012592315673828
31.689285278320312,35.89667892456055,-241.64486694335938,-8.694339752197266,68.0137939453125,-398.6322326660156,-152.59970092773438,-243.05154418945312,-168.17601013183594,-28.982074737548828
31.700000762939453,30.228782653808594,-234.94580078125,0.0,65.81060791015625,-395.99688720703125,-154.8038787841797,-241.03050231933594,-150.19932556152344,-21.99224853515625
31.71071434020996,26.450183868408203,-234.94580078125,3.8641510009765625,70.96836853027344,-396.5289001464844,-155.41180419921875,-252.0094757080078,-145.22262573242188,-1.0024199485778809
31.742856979370117,24.56088638305664,-239.73085021972656,3.8641510009765625,65.76041412353516,-395.9698791503906,-155.79014587402344,-282.9463806152344,-149.29257202148438,7.967062950134277
31.69285774230957,31.173431396484375,-242.6018829345703,-1.9320755004882812,69.41584777832031,-396.6023254394531,-156.4984588623047,-320.0445251464844,-153.18377685546875,3.014533519744873
31.671428680419922,35.89667892456055,-243.5588836669922,4.830188751220703,66.36102294921875,-395.83856201171875,-158.69879150390625,-309.0865783691406,-159.1371612548828,8.034878730773926
31.707141876220703,38.730628967285156,-247.3869171142578,3.8641510009765625,64.70811462402344,-395.85797119140625,-161.75799560546875,-256.0164794921875,-173.21485900878906,14.000971794128418
31.753570556640625,36.84132766723633,-256.0,-2.898113250732422,67.06217956542969,-392.0105285644531,-163.68804931640625,-197.9253692626953,-161.3158721923828,3.9568915367126465
31.685714721679688,31.173431396484375,-257.9140319824219,-9.660377502441406,66.26077270507812,-392.971435546875,-163.71121215820312,-134.0585479736328,-137.16824340820312,-2.978684425354004
31.657142639160156,26.450183868408203,-256.0,-9.660377502441406,64.0073013305664,-392.1844482421875,-164.87509155273438,-37.114620208740234,-113.10607147216797,14.048441886901855
31.689285278320312,27.394834518432617,-254.0859832763672,-10.626415252685547,64.85885620117188,-392.1882629394531,-162.85235595703125,51.94846725463867,-97.17601013183594,38.01792526245117
31.671428680419922,27.394834518432617,-252.17196655273438,-7.728302001953125,62.75587844848633,-393.3576965332031,-159.0308074951172,86.91342163085938,-83.13715362548828,47.03487777709961
31.71071434020996,30.228782653808594,-249.3009490966797,-4.830188751220703,62.95473098754883,-397.69873046875,-164.76315307617188,88.99052429199219,-70.2226333618164,44.99757766723633
31.69285774230957,30.228782653808594,-248.34393310546875,-4.830188751220703,64.10758972167969,-394.1138916015625,-160.87594604492188,64.95548248291016,-61.18378448486328,41.01453399658203
31.707141876220703,23.616235733032227,-250.25794982910156,-5.796226501464844,62.60521697998047,-395.15203857421875,-159.96302795410156,39.98351287841797,-51.21485900878906,33.000972747802734
31.71071434020996,25.505535125732422,-252.17196655273438,-10.626415252685547,62.65549850463867,-393.3036804199219,-161.00335693359375,-11.009475708007812,-37.222633361816406,22.997581481933594
31.714284896850586,29.284133911132812,-253.1289825439453,-13.524528503417969,63.956939697265625,-395.908203125,-161.8081817626953,-53.00246810913086,-32.230403900146484,12.994190216064453
31.735713958740234,30.228782653808594,-253.1289825439453,-14.49056625366211,65.61011505126953,-390.26263427734375,-164.82875061035156,-72.96041107177734,-33.27703094482422,14.973845481872559
31.68214225769043,34.952030181884766,-254.0859832763672,-12.558490753173828,61.60313415527344,-394.12945556640625,-165.9578857421875,-70.0655517578125,-31.16046905517578,21.024707794189453
31.696428298950195,32.118080139160156,-255.04299926757812,-7.728302001953125,63.90679168701172,-394.9434814453125,-163.80775451660156,-67.03751373291016,-19.191551208496094,28.01114273071289
31.746429443359375,24.56088638305664,-258.87103271484375,-8.694339752197266,64.00720977783203,-394.0598449707031,-162.8485107421875,-69.93937683105469,-2.3003435134887695,25.963672637939453
31.714284896850586,25.505535125732422,-259.8280334472656,-12.558490753173828,63.80644989013672,-393.9517517089844,-166.79360961914062,-50.00246810913086,10.769596099853516,15.994190216064453
31.657142639160156,23.616235733032227,-256.0,-8.694339752197266,60.30160903930664,-393.4003601074219,-163.12648010253906,-7.114619255065918,22.8939266204834,10.048441886901855
31.714284896850586,20.78228759765625,-253.1289825439453,-9.660377502441406,63.90679168701172,-394.9434814453125,-163.80775451660156,31.99753189086914,24.76959800720215,3.994190216064453
31.739286422729492,21.726938247680664,-250.25794982910156,-5.796226501464844,61.05277633666992,-393.35009765625,-163.07627868652344,37.046600341796875,28.715200424194336,-4.029546737670898
31.696428298950195,20.78228759765625,-249.3009490966797,-4.830188751220703,63.9067497253418,-395.8811950683594,-162.79446411132812,12.962485313415527,31.808446884155273,-9.988856315612793
31.725000381469727,23.616235733032227,-251.2149658203125,-7.728302001953125,63.15553283691406,-396.8691101074219,-161.8313446044922,-32.98143768310547,33.74628448486328,-12.015983581542969
31.714284896850586,21.726938247680664,-250.25794982910156,-13.524528503417969,62.70573043823242,-392.39300537109375,-161.03038024902344,-64.00247192382812,39.76959991455078,-9.005809783935547
31.707141876220703,20.78228759765625,-252.17196655273438,-12.558490753173828,62.404457092285156,-395.0439453125,-163.9081268310547,-70.01648712158203,34.78514099121094,3.000971794128418
31.700000762939453,19.83763885498047,-253.1289825439453,-12.558490753173828,63.95707321166992,-393.0951232910156,-164.8480682373047,-57.03050231933594,25.800676345825195,11.007752418518066
31.73214340209961,19.83763885498047,-254.0859832763672,-12.558490753173828,61.452476501464844,-395.9237976074219,-166.89013671875,-25.967418670654297,6.730741500854492,12.977234840393066
31.717857360839844,21.726938247680664,-256.95703125,-6.762264251708984,66.26077270507812,-392.971435546875,-163.71121215820312,7.004543304443359,-12.238176345825195,6.990798473358154
31.72857093811035,26.450183868408203,-258.87103271484375,-1.9320755004882812,62.45473861694336,-393.1955871582031,-164.94845581054688,32.02557373046875,-23.261486053466797,-3.0193734169006348
31.72857093811035,25.505535125732422,-256.95703125,-0.9660377502441406,65.45941162109375,-392.9946594238281,-164.74769592285156,49.02557373046875,-26.261486053466797,-16.01937484741211
31.746429443359375,23.616235733032227,-252.17196655273438,-1.9320755004882812,62.454647064208984,-395.07098388671875,-162.92185974121094,58.06062316894531,-29.300342559814453,-30.036327362060547
31.73214340209961,20.78228759765625,-246.42991638183594,-4.830188751220703,64.05735778808594,-395.0245666503906,-160.84893798828125,66.03258514404297,-35.269256591796875,-28.02276611328125
31.717857360839844,17.948339462280273,-247.3869171142578,-7.728302001953125,61.70347213745117,-395.1212158203125,-162.9720458984375,74.00454711914062,-45.23817443847656,-18.009201049804688
31.72857093811035,20.78228759765625,-247.3869171142578,-8.694339752197266,62.45455551147461,-396.9463806152344,-160.895263671875,75.02557373046875,-53.26148986816406,-7.019373893737793
31.714284896850586,19.83763885498047,-244.51589965820312,-6.762264251708984,61.603092193603516,-395.0671691894531,-164.94461059570312,73.9975357055664,-55.23040008544922,-2.005809783935547
31.739286422729492,23.616235733032227,-244.51589965820312,-1.9320755004882812,63.20572280883789,-396.8961486816406,-160.84507751464844,71.04660034179688,-64.28479766845703,5.970453262329102
31.66428565979004,29.284133911132812,-245.472900390625,0.0,64.1578369140625,-393.2032165527344,-160.90296936035156,72.89939880371094,-66.12161254882812,2.041660785675049
31.725000381469727,25.505535125732422,-248.34393310546875,-2.898113250732422,62.253746032714844,-397.7759704589844,-163.8270721435547,70.01856231689453,-58.25371551513672,-13.015983581542969
31.725000381469727,19.83763885498047,-248.34393310546875,-6.762264251708984,60.301475524902344,-396.2134094238281,-160.08657836914062,69.01856231689453,-45.25371551513672,-30.01598358154297
31.68214225769043,19.83763885498047,-252.17196655273438,-10.626415252685547,63.30614471435547,-396.0124816894531,-159.8858184814453,102.9344482421875,-45.16046905517578,-30.975292205810547
31.700000762939453,24.56088638305664,-247.3869171142578,-3.8641510009765625,63.5069580078125,-395.182861328125,-156.9540252685547,143.96949768066406,-51.19932556152344,-18.99224853515625
31.678571701049805,32.118080139160156,-244.51589965820312,-0.9660377502441406,63.155391693115234,-399.68218994140625,-158.79147338867188,186.92742919921875,-50.15270233154297,-2.971902847290039
31.621429443359375,33.0627326965332,-242.6018829345703,-2.898113250732422,61.95433044433594,-397.1317138671875,-156.0140838623047,226.81527709960938,-55.02836608886719,21.082347869873047
31.64285659790039,32.118080139160156,-241.64486694335938,-9.660377502441406,60.301246643066406,-400.90191650390625,-155.02011108398438,220.85733032226562,-53.074989318847656,44.06200408935547
31.69285774230957,28.3394832611084,-241.64486694335938,-8.694339752197266,59.44969177246094,-400.8981018066406,-157.0428466796875,182.95547485351562,-40.18378448486328,51.01453399658203
31.717857360839844,26.450183868408203,-239.73085021972656,-5.796226501464844,61.10264587402344,-399.94097900390625,-154.9969482421875,159.00453186035156,-24.238176345825195,40.99079895019531
31.735713958740234,24.56088638305664,-235.90281677246094,-2.898113250732422,60.00205612182617,-395.56915283203125,-152.27359008789062,148.03958129882812,-12.277029037475586,26.973846435546875
31.66428565979004,23.616235733032227,-233.98878479003906,2.898113250732422,58.89928436279297,-401.0564270019531,-153.14794921875,130.89939880371094,-9.12161636352539,19.04166030883789
31.735713958740234,27.394834518432617,-242.6018829345703,2.898113250732422,58.79890441894531,-401.00238037109375,-155.1204833984375,76.03958892822266,-15.277029037475586,24.973846435546875
31.735713958740234,34.007381439208984,-245.472900390625,-1.9320755004882812,58.84913635253906,-400.0917053222656,-155.1475067138672,-5.960410118103027,-23.277029037475586,34.97384262084961
31.717857360839844,32.118080139160156,-247.3869171142578,0.0,58.79886245727539,-401.9400634765625,-154.10719299316406,-61.99545669555664,-23.238176345825195,36.99079895019531
31.757143020629883,30.228782653808594,-246.42991638183594,0.9660377502441406,57.49747085571289,-398.3978271484375,-154.31564331054688,-64.91835021972656,-16.323654174804688,1.9534997940063477
31.707141876220703,29.284133911132812,-252.17196655273438,-3.8641510009765625,60.301246643066406,-400.90191650390625,-155.02011108398438,-34.01648712158203,-9.214861869812012,-11.999028205871582
31.71071434020996,26.450183868408203,-252.17196655273438,-0.9660377502441406,58.94951629638672,-400.145751953125,-153.17495727539062,23.990524291992188,-4.222635269165039,-17.002418518066406
31.707141876220703,26.450183868408203,-250.25794982910156,0.0,58.89932632446289,-400.11871337890625,-154.16122436523438,78.98351287841797,3.7851390838623047,-14.999028205871582
31.685714721679688,23.616235733032227,-244.51589965820312,-2.898113250732422,59.55011749267578,-400.01446533203125,-156.08358764648438,115.94145965576172,16.831758499145508,-11.978684425354004
31.700000762939453,21.726938247680664,-243.5588836669922,0.0,61.25331497192383,-398.14666748046875,-154.064697265625,113.96949768066406,25.800676345825195,-10.992247581481934
31.703571319580078,24.56088638305664,-241.64486694335938,-1.9320755004882812,60.301204681396484,-401.839599609375,-154.00680541992188,93.97650909423828,24.792905807495117,-10.995637893676758
31.696428298950195,27.394834518432617,-243.5588836669922,-1.9320755004882812,61.20298385620117,-400.9327087402344,-152.01109313964844,61.962486267089844,11.808448791503906,-6.988856315612793
31.71071434020996,26.450183868408203,-247.3869171142578,2.898113250732422,58.84905242919922,-401.96710205078125,-153.1209259033203,28.990524291992188,7.777364730834961,-6.002419948577881
31.725000381469727,27.394834518432617,-249.3009490966797,0.0,59.75092315673828,-399.1848449707031,-153.15179443359375,16.01856231689453,3.7462825775146484,-19.01598358154297
31.700000762939453,27.394834518432617,-248.34393310546875,-0.9660377502441406,59.851261138916016,-400.17657470703125,-150.1659393310547,6.969496726989746,1.8006763458251953,-34.99224853515625
31.707141876220703,26.450183868408203,-247.3869171142578,-0.9660377502441406,61.95415115356445,-400.8824768066406,-151.9608917236328,-13.016487121582031,5.785139083862305,-48.999027252197266
31.66428565979004,24.56088638305664,-247.3869171142578,-2.898113250732422,61.35364532470703,-399.1383972167969,-151.078857421875,-22.10059928894043,4.878383636474609,-54.95833969116211
31.71071434020996,22.671586990356445,-248.34393310546875,-4.830188751220703,59.75074005126953,-402.9356384277344,-149.09860229492188,-52.00947570800781,0.7773647308349609,-53.00242233276367
31.707141876220703,20.78228759765625,-247.3869171142578,-0.9660377502441406,61.45407485961914,-398.2547302246094,-150.11959838867188,-82.01648712158203,2.7851390838623047,-50.999027252197266
31.714284896850586,20.78228759765625,-250.25794982910156,-1.9320755004882812,63.50677490234375,-398.93365478515625,-152.90084838867188,-93.0024642944336,-1.2304039001464844,-48.00580978393555
31.739286422729492,20.78228759765625,-248.34393310546875,0.9660377502441406,61.102561950683594,-401.8163757324219,-152.97035217285156,-101.95339965820312,-7.284801483154297,-41.02954864501953
31.69285774230957,23.616235733032227,-251.2149658203125,0.0,61.853729248046875,-401.7661437988281,-152.920166015625,-112.04451751708984,-14.183782577514648,-30.98546600341797
31.73214340209961,29.284133911132812,-255.04299926757812,-2.898113250732422,61.203125,-398.11962890625,-155.0509796142578,-95.96741485595703,-23.26926040649414,-28.02276611328125
31.66428565979004,34.007381439208984,-253.1289825439453,-0.9660377502441406,63.65747833251953,-396.2016296386719,-152.98190307617188,-59.1005973815918,-26.12161636352539,-32.95833969116211
31.71071434020996,32.118080139160156,-255.04299926757812,-3.8641510009765625,63.25572967529297,-400.6739501953125,-155.8056182861328,-8.009475708007812,-19.22263526916504,-40.00242233276367
31.71071434020996,28.3394832611084,-251.2149658203125,-3.8641510009765625,63.20558166503906,-399.709228515625,-157.80519104003906,40.99052429199219,-2.222635269165039,-45.00242233276367
31.746429443359375,23.616235733032227,-248.34393310546875,-4.830188751220703,63.40634536743164,-399.81732177734375,-153.86009216308594,78.06062316894531,7.699655532836914,-51.03633117675781
31.735713958740234,21.726938247680664,-241.64486694335938,-8.694339752197266,64.35841369628906,-397.06207275390625,-152.90469360351562,99.03958892822266,11.722970962524414,-47.02615737915039
31.714284896850586,22.671586990356445,-238.77383422851562,-5.796226501464844,63.55701446533203,-398.0229797363281,-152.9278564453125,79.9975357055664,2.7695960998535156,-29.005809783935547
31.703571319580078,25.505535125732422,-240.68785095214844,-0.9660377502441406,65.10963439941406,-396.07415771484375,-153.8677978515625,33.976505279541016,-9.207093238830566,-5.995637893676758
31.696428298950195,26.450183868408203,-246.42991638183594,-1.9320755004882812,63.50677490234375,-398.93365478515625,-152.90084838867188,-8.037514686584473,-17.191551208496094,8.011143684387207
31.700000762939453,28.3394832611084,-248.34393310546875,-2.898113250732422,64.75807189941406,-400.573486328125,-155.70523071289062,-39.03050231933594,-18.199325561523438,5.007751941680908
31.671428680419922,30.228782653808594,-252.17196655273438,0.0,61.05232238769531,-402.72705078125,-152.94332885742188,-60.086578369140625,-12.137157440185547,-8.965121269226074
31.71071434020996,32.118080139160156,-254.0859832763672,-1.9320755004882812,61.903961181640625,-400.85546875,-152.94717407226562,-48.00947570800781,-13.222635269165039,-24.002418518066406
31.649999618530273,31.173431396484375,-251.2149658203125,-2.898113250732422,64.90864562988281,-400.654541015625,-152.7464141845703,-15.12863826751709,-13.090533256530762,-38.94477844238281
31.742856979370117,32.118080139160156,-251.2149658203125,-3.8641510009765625,63.10498046875,-404.3436584472656,-154.71127319335938,11.053608894348145,-7.292570114135742,-50.03293991088867
31.746429443359375,24.56088638305664,-249.3009490966797,-5.796226501464844,61.95415115356445,-400.8824768066406,-151.9608917236328,21.060623168945312,1.699655532836914,-52.03633117675781
31.725000381469727,21.726938247680664,-246.42991638183594,-4.830188751220703,65.15977478027344,-397.0388488769531,-151.86822509765625,16.01856231689453,10.746282577514648,-54.01598358154297
31.72857093811035,21.726938247680664,-242.6018829345703,-2.898113250732422,62.65518569946289,-399.8675537109375,-153.9102783203125,-4.974429130554199,10.73851203918457,-50.01937484741211
31.72142791748047,27.394834518432617,-240.68785095214844,-4.830188751220703,64.1072769165039,-400.677734375,-153.7828826904297,-43.98844909667969,-3.2459449768066406,-35.01259231567383
31.739286422729492,30.228782653808594,-240.68785095214844,-0.9660377502441406,65.71014404296875,-397.8182373046875,-154.74984741210938,-86.95339965820312,-18.284801483154297,-15.029547691345215
31.725000381469727,32.118080139160156,-246.42991638183594,-3.8641510009765625,63.45658493041992,-398.9066162109375,-153.88711547851562,-131.9814453125,-28.253719329833984,-3.0159835815429688
31.696428298950195,34.007381439208984,-252.17196655273438,-2.898113250732422,64.65765380859375,-401.4571228027344,-156.66448974609375,-147.0375213623047,-26.191551208496094,-6.988856315612793
31.72857093811035,32.118080139160156,-256.0,-1.9320755004882812,65.7603759765625,-396.9075622558594,-154.77685546875,-116.97442626953125,-19.261486053466797,-25.01937484741211
31.735713958740234,33.0627326965332,-256.95703125,-4.830188751220703,64.90877532958984,-397.8414611816406,-155.7863006591797,-68.96041107177734,-10.277029037475586,-42.02615737915039
31.72857093811035,26.450183868408203,-252.17196655273438,-6.762264251708984,65.10968017578125,-395.1364440917969,-154.88108825683594,-26.974430084228516,0.7385120391845703,-54.01937484741211
31.639286041259766,28.3394832611084,-245.472900390625,-1.9320755004882812,67.2627182006836,-396.80706787109375,-154.67648315429688,3.850335121154785,7.932777404785156,-58.93460464477539
31.685714721679688,27.394834518432617,-243.5588836669922,-1.9320755004882812,64.95906829833984,-395.9930725097656,-156.82662963867188,14.941458702087402,8.831758499145508,-53.97868728637695
31.760713577270508,26.450183868408203,-242.6018829345703,-3.8641510009765625,69.46603393554688,-396.6293640136719,-155.51217651367188,-1.9113445281982422,6.668577194213867,-41.04989242553711
31.700000762939453,25.505535125732422,-244.51589965820312,-6.762264251708984,65.5094223022461,-396.7724609375,-159.70822143554688,-17.030502319335938,1.8006763458251953,-32.99224853515625
31.696428298950195,28.3394832611084,-250.25794982910156,-8.694339752197266,63.30601501464844,-398.8255615234375,-156.845947265625,-11.037514686584473,-1.1915512084960938,-30.98885726928711
31.69285774230957,30.228782653808594,-249.3009490966797,-9.660377502441406,66.10974884033203,-402.267333984375,-156.53709411621094,-1.0445222854614258,2.8162174224853516,-30.98546600341797
31.72142791748047,30.228782653808594,-244.51589965820312,-9.660377502441406,66.26045989990234,-399.5353088378906,-156.6181640625,19.011550903320312,6.754055023193359,-28.012592315673828
31.700000762939453,31.173431396484375,-245.472900390625,-9.660377502441406,68.01392364501953,-395.81915283203125,-155.6395721435547,33.96949768066406,2.8006763458251953,-14.992247581481934
31.72142791748047,31.173431396484375,-246.42991638183594,-0.9660377502441406,70.0666732788086,-395.56036376953125,-159.43411254882812,35.01155090332031,6.754055023193359,-0.012591361999511719
31.764286041259766,32.118080139160156,-248.34393310546875,-1.9320755004882812,63.65747833251953,-396.2016296386719,-152.98190307617188,10.095667839050293,9.660804748535156,5.946717739105225
31.735713958740234,28.3394832611084,-248.34393310546875,-7.728302001953125,67.2125244140625,-396.7800598144531,-155.66275024414062,-18.960411071777344,4.722970962524414,1.9738450050354004
31.735713958740234,26.450183868408203,-247.3869171142578,-2.898113250732422,64.05718231201172,-398.77532958984375,-156.79574584960938,-24.960411071777344,7.722970962524414,-8.026154518127441
31.707141876220703,30.228782653808594,-251.2149658203125,-3.8641510009765625,66.4111099243164,-397.7409973144531,-155.6859130859375,-19.01648712158203,9.785139083862305,-10.999028205871582
31.69285774230957,32.118080139160156,-250.25794982910156,-5.796226501464844,65.05939483642578,-396.98480224609375,-153.8407745361328,-14.044522285461426,11.816217422485352,-18.98546600341797
31.69285774230957,30.228782653808594,-249.3009490966797,-4.830188751220703,65.76041412353516,-395.9698791503906,-155.79014587402344,-5.044522285461426,15.816217422485352,-28.98546600341797
31.735713958740234,28.3394832611084,-247.3869171142578,-0.9660377502441406,69.56646728515625,-395.7456970214844,-154.5529327392578,0.039589881896972656,15.722970962524414,-34.02615737915039
31.703571319580078,29.284133911132812,-246.42991638183594,-3.8641510009765625,65.76041412353516,-395.9698791503906,-155.79014587402344,-7.023494720458984,17.792905807495117,-28.99563980102539
31.717857360839844,29.284133911132812,-244.51589965820312,-3.8641510009765625,67.96373748779297,-395.7921142578125,-156.6258544921875,-18.99545669555664,22.761823654174805,-21.009201049804688
31.72857093811035,31.173431396484375,-246.42991638183594,0.0,66.260498046875,-398.5976257324219,-157.63143920898438,-20.974430084228516,19.73851203918457,-7.019373893737793
31.66071319580078,32.118080139160156,-248.34393310546875,-3.8641510009765625,70.76751708984375,-398.29620361328125,-157.33030700683594,-22.10761070251465,14.88615608215332,5.045052528381348
31.753570556640625,31.173431396484375,-248.34393310546875,-0.9660377502441406,68.16454315185547,-394.9625244140625,-153.6940460205078,-6.925363540649414,17.684118270874023,4.9568915367126465
31.678571701049805,36.84132766723633,-251.2149658203125,-3.8641510009765625,69.46603393554688,-396.6293640136719,-155.51217651367188,21.927440643310547,18.847299575805664,-3.971902847290039
31.71071434020996,34.952030181884766,-248.34393310546875,-3.8641510009765625,67.91354370117188,-395.7651062011719,-157.61212158203125,47.99052429199219,21.77736473083496,-15.002419471740723
31.69285774230957,37.785980224609375,-248.34393310546875,-4.830188751220703,68.51400756835938,-398.4468994140625,-157.4808807373047,55.955482482910156,34.81621551513672,-28.98546600341797
31.707141876220703,31.173431396484375,-242.6018829345703,-1.9320755004882812,65.76041412353516,-395.9698791503906,-155.79014587402344,58.98351287841797,37.78514099121094,-37.999027252197266
31.72142791748047,29.284133911132812,-242.6018829345703,-2.898113250732422,68.76492309570312,-399.5196838378906,-151.5362091064453,49.01155090332031,31.754056930541992,-38.01259231567383
31.735713958740234,27.394834518432617,-242.6018829345703,-4.830188751220703,66.61196899414062,-395.97369384765625,-153.7674102783203,14.039589881896973,26.722970962524414,-32.02615737915039
31.739286422729492,26.450183868408203,-242.6018829345703,-5.796226501464844,70.96827697753906,-398.404296875,-153.3852081298828,-14.953398704528809,24.715200424194336,-19.02954864501953
31.735713958740234,27.394834518432617,-242.6018829345703,-1.9320755004882812,70.8678970336914,-398.3502502441406,-155.35775756835938,-24.960411071777344,20.722970962524414,-5.0261549949646
31.717857360839844,34.952030181884766,-244.51589965820312,-2.898113250732422,68.71481323242188,-397.6172790527344,-154.549072265625,-36.99545669555664,21.761823654174805,-0.009201526641845703
31.700000762939453,34.952030181884766,-243.5588836669922,-0.9660377502441406,67.91354370117188,-395.7651062011719,-157.61212158203125,-44.03050231933594,22.800676345825195,-1.9922480583190918
31.700000762939453,34.007381439208984,-246.42991638183594,2.898113250732422,67.81285095214844,-402.2749328613281,-152.49160766601562,-49.03050231933594,15.800676345825195,-9.992247581481934
31.66071319580078,30.228782653808594,-247.3869171142578,1.9320755004882812,66.36102294921875,-395.83856201171875,-158.69879150390625,-52.107608795166016,11.88615608215332,-17.95494842529297
31.75,30.228782653808594,-252.17196655273438,-0.9660377502441406,69.46603393554688,-396.6293640136719,-155.51217651367188,-34.932369232177734,8.691888809204102,-22.039718627929688
31.72857093811035,31.173431396484375,-249.3009490966797,-5.796226501464844,67.01163482666016,-399.4850769042969,-156.56796264648438,-10.9744291305542,11.73851203918457,-19.01937484741211
31.71071434020996,33.0627326965332,-245.472900390625,-3.8641510009765625,71.76978302001953,-395.5679931640625,-155.3886260986328,9.990523338317871,12.777364730834961,-11.002419471740723
31.667858123779297,33.0627326965332,-246.42991638183594,-4.830188751220703,70.21724700927734,-395.64141845703125,-156.4752960205078,37.90641403198242,11.870611190795898,2.03826904296875
31.714284896850586,33.0627326965332,-245.472900390625,-3.8641510009765625,70.2170639038086,-399.3922119140625,-152.42210388183594,49.99753189086914,11.769596099853516,9.994190216064453
31.657142639160156,31.173431396484375,-246.42991638183594,-0.9660377502441406,68.61443328857422,-397.563232421875,-156.52163696289062,48.88538360595703,10.893926620483398,13.048441886901855
31.674999237060547,26.450183868408203,-247.3869171142578,-3.8641510009765625,71.66930389404297,-397.38934326171875,-155.33457946777344,37.92042922973633,9.855073928833008,12.031489372253418
31.72857093811035,30.228782653808594,-249.3009490966797,-0.9660377502441406,67.86327362060547,-397.61346435546875,-156.5718231201172,20.025569915771484,2.7385120391845703,9.980626106262207
31.753570556640625,32.118080139160156,-247.3869171142578,3.8641510009765625,70.317626953125,-395.6954650878906,-154.50274658203125,0.07463645935058594,-10.31588077545166,12.956891059875488
31.700000762939453,33.0627326965332,-248.34393310546875,-0.9660377502441406,66.16002655029297,-400.4189758300781,-157.57740783691406,-13.030503273010254,-18.199325561523438,11.007752418518066
31.72142791748047,30.228782653808594,-248.34393310546875,-0.9660377502441406,70.06645202636719,-400.24884033203125,-154.3676300048828,-20.988449096679688,-19.24594497680664,1.9874086380004883
31.717857360839844,30.228782653808594,-251.2149658203125,-2.898113250732422,68.71485900878906,-396.6795959472656,-155.56236267089844,-16.99545669555664,-14.238176345825195,-3.0092015266418457
31.72142791748047,30.228782653808594,-252.17196655273438,-7.728302001953125,69.36556243896484,-398.4507141113281,-155.4581298828125,-1.9884490966796875,-11.24594497680664,-12.012591361999512
31.66428565979004,32.118080139160156,-249.3009490966797,-5.796226501464844,69.56646728515625,-395.7456970214844,-154.5529327392578,35.8994026184082,-9.12161636352539,-13.958338737487793
31.725000381469727,30.228782653808594,-245.472900390625,0.0,68.61443328857422,-397.563232421875,-156.52163696289062,52.01856231689453,-6.253718376159668,-5.015983581542969
31.68214225769043,29.284133911132812,-241.64486694335938,2.898113250732422,67.96369171142578,-396.7298278808594,-155.61256408691406,42.9344482421875,-3.160468101501465,3.024707317352295
31.696428298950195,27.394834518432617,-243.5588836669922,2.898113250732422,70.9682388305664,-399.34197998046875,-152.37191772460938,18.962486267089844,-2.1915512084960938,16.01114273071289
31.703571319580078,29.284133911132812,-245.472900390625,0.9660377502441406,69.56636810302734,-397.62109375,-152.52633666992188,-6.023494720458984,-5.207093238830566,22.00436019897461
31.678571701049805,25.505535125732422,-246.42991638183594,2.898113250732422,69.3153305053711,-399.36138916015625,-155.43112182617188,-23.072561264038086,-9.15269947052002,22.028095245361328
31.64285659790039,31.173431396484375,-248.34393310546875,-3.8641510009765625,67.96365356445312,-397.6675109863281,-154.59927368164062,-19.142658233642578,-10.074991226196289,16.0620059967041
31.717857360839844,32.118080139160156,-248.34393310546875,-0.9660377502441406,67.21239471435547,-399.5931701660156,-152.62286376953125,-4.995456695556641,-9.238176345825195,4.990798473358154
31.77142906188965,32.118080139160156,-245.472900390625,-0.9660377502441406,70.21720123291016,-396.5791320800781,-155.4619903564453,9.109686851501465,-12.354737281799316,-5.06006383895874
31.717857360839844,34.007381439208984,-247.3869171142578,-4.830188751220703,66.31072998046875,-397.68695068359375,-157.65846252441406,-2.9954566955566406,-13.238176345825195,-7.009202003479004
31.707141876220703,31.173431396484375,-247.3869171142578,-3.8641510009765625,69.46603393554688,-396.6293640136719,-155.51217651367188,-15.016487121582031,-12.214861869812012,-5.999028205871582
31.78571319580078,32.118080139160156,-247.3869171142578,-1.9320755004882812,68.46368408203125,-401.23297119140625,-155.42726135253906,-26.86227798461914,-14.385815620422363,-7.073625564575195
31.739286422729492,31.173431396484375,-248.34393310546875,0.9660377502441406,68.01388549804688,-396.7568359375,-154.6262969970703,-27.953399658203125,-16.284801483154297,-6.029546737670898
31.73214340209961,29.284133911132812,-249.3009490966797,0.9660377502441406,65.76033020019531,-397.84527587890625,-153.7635498046875,-18.967418670654297,-16.26926040649414,-8.022765159606934
31.73214340209961,27.394834518432617,-247.3869171142578,0.0,69.51622772216797,-396.6563720703125,-154.52590942382812,-23.967418670654297,-13.269259452819824,-12.022765159606934
31.735713958740234,30.228782653808594,-250.25794982910156,-0.9660377502441406,68.61438751220703,-398.5009460449219,-155.50833129882812,-16.960411071777344,-10.277029037475586,-12.026154518127441
31.73214340209961,30.228782653808594,-250.25794982910156,-3.8641510009765625,68.5641098022461,-400.34930419921875,-154.468017578125,-6.9674177169799805,-6.269259452819824,-8.022765159606934
31.757143020629883,30.228782653808594,-245.472900390625,-4.830188751220703,67.81312561035156,-396.64874267578125,-158.57139587402344,-1.9183521270751953,-4.323653221130371,-1.0465002059936523
31.717857360839844,27.394834518432617,-245.472900390625,-2.898113250732422,68.56429290771484,-396.5985107421875,-158.5211944580078,-0.9954566955566406,-2.2381763458251953,5.990798473358154
31.700000762939453,32.118080139160156,-247.3869171142578,-2.898113250732422,70.1168212890625,-396.52508544921875,-157.43453979492188,-9.030503273010254,-3.199324607849121,12.007752418518066
31.72142791748047,32.118080139160156,-250.25794982910156,-1.9320755004882812,67.8634033203125,-394.8003845214844,-159.6116943359375,-9.988449096679688,-2.2459449768066406,12.987408638000488
31.71071434020996,33.0627326965332,-248.34393310546875,-3.8641510009765625,65.10968017578125,-395.1364440917969,-154.88108825683594,-6.0094757080078125,4.777364730834961,4.997580051422119
31.73214340209961,34.007381439208984,-249.3009490966797,-6.762264251708984,69.36565399169922,-396.5753173828125,-157.48472595214844,0.03258228302001953,11.730741500854492,-5.022765159606934
31.69285774230957,31.173431396484375,-250.25794982910156,-3.8641510009765625,67.2125244140625,-396.7800598144531,-155.66275024414062,0.9554777145385742,14.816217422485352,-11.985466957092285
31.685714721679688,31.173431396484375,-250.25794982910156,-3.8641510009765625,68.86556243896484,-393.94757080078125,-155.6434326171875,-7.058541297912598,11.831758499145508,-10.978684425354004
31.696428298950195,31.173431396484375,-248.34393310546875,-2.898113250732422,66.31072998046875,-397.68695068359375,-157.65846252441406,-8.037514686584473,3.8084487915039062,-3.988856315612793
31.72857093811035,30.228782653808594,-250.25794982910156,-1.9320755004882812,71.71959686279297,-395.54095458984375,-156.37490844726562,-1.9744291305541992,2.7385120391845703,0.9806265830993652
31.703571319580078,28.3394832611084,-246.42991638183594,-2.898113250732422,65.50923919677734,-400.52325439453125,-155.65504455566406,-8.023494720458984,10.792905807495117,2.004362106323242
31.735713958740234,30.228782653808594,-244.51589965820312,-1.9320755004882812,70.1670150756836,-396.5520935058594,-156.44827270507812,-18.960411071777344,20.722970962524414,-4.0261549949646
31.760713577270508,26.450183868408203,-242.6018829345703,0.9660377502441406,66.61196899414062,-395.97369384765625,-153.7674102783203,-24.91134262084961,19.668577194213867,-6.049890518188477
31.689285278320312,31.173431396484375,-244.51589965820312,-1.9320755004882812,71.82001495361328,-394.6573181152344,-155.4156494140625,-44.05153274536133,16.82398796081543,-6.982074737548828
31.78571319580078,30.228782653808594,-248.34393310546875,-5.796226501464844,68.61438751220703,-398.5009460449219,-155.50833129882812,-59.86227798461914,12.61418342590332,-4.073625564575195
31.69285774230957,26.450183868408203,-252.17196655273438,-3.8641510009765625,69.31546783447266,-396.54827880859375,-158.47100830078125,-54.04452133178711,9.816217422485352,-5.985466480255127
31.72857093811035,30.228782653808594,-251.2149658203125,-7.728302001953125,69.51627349853516,-395.71868896484375,-155.53919982910156,-25.974430084228516,7.73851203918457,-9.019373893737793
31.774999618530273,33.0627326965332,-248.34393310546875,-5.796226501464844,70.11691284179688,-394.6496887207031,-159.46112060546875,6.116694450378418,8.637495040893555,-12.063453674316406
31.714284896850586,32.118080139160156,-246.42991638183594,-2.898113250732422,68.61453247070312,-395.6878356933594,-158.5482177734375,32.99753189086914,8.769596099853516,-6.005809783935547
31.714284896850586,30.228782653808594,-246.42991638183594,-2.898113250732422,70.36781311035156,-395.72247314453125,-153.51646423339844,32.99753189086914,9.769596099853516,-0.005809783935546875
31.714284896850586,32.118080139160156,-245.472900390625,-0.9660377502441406,70.06663513183594,-396.498046875,-158.4208221435547,14.997530937194824,12.769596099853516,2.994190216064453
31.66071319580078,27.394834518432617,-243.5588836669922,-0.9660377502441406,70.96832275390625,-397.4665832519531,-154.3985137939453,2.8923892974853516,13.88615608215332,5.045052528381348
31.72857093811035,25.505535125732422,-242.6018829345703,-0.9660377502441406,67.01167297363281,-398.54736328125,-157.5812530517578,-8.9744291305542,10.73851203918457,4.980626583099365
31.75,29.284133911132812,-242.6018829345703,0.9660377502441406,69.51627349853516,-395.71868896484375,-155.53919982910156,-32.932369232177734,-2.308112144470215,8.960281372070312
31.674999237060547,31.173431396484375,-245.472900390625,-0.9660377502441406,70.11686706542969,-395.5873718261719,-158.44784545898438,-60.07957077026367,-8.144927024841309,9.031488418579102
31.75,30.228782653808594,-247.3869171142578,-0.9660377502441406,67.86327362060547,-397.61346435546875,-156.5718231201172,-63.932369232177734,-11.308112144470215,6.9602813720703125
31.72142791748047,31.173431396484375,-250.25794982910156,-1.9320755004882812,68.76509857177734,-395.7689208984375,-155.58938598632812,-51.98844909667969,-16.24594497680664,3.9874086380004883
31.700000762939453,32.118080139160156,-249.3009490966797,-2.898113250732422,70.16705322265625,-395.6144104003906,-157.46156311035156,-32.03050231933594,-13.199324607849121,0.007751941680908203
31.66071319580078,33.0627326965332,-251.2149658203125,-2.898113250732422,68.66471862792969,-395.7148742675781,-157.5619354248047,4.892389297485352,-9.113842964172363,-3.9549474716186523
31.71071434020996,34.007381439208984,-249.3009490966797,-2.898113250732422,67.71265411376953,-398.4700927734375,-158.51734924316406,28.990524291992188,-2.222635269165039,-5.002419948577881
31.746429443359375,32.118080139160156,-246.42991638183594,0.0,66.96148681640625,-398.52032470703125,-158.56753540039062,49.06062316894531,2.699655532836914,-2.0363287925720215
31.742856979370117,28.3394832611084,-241.64486694335938,-3.8641510009765625,68.51405334472656,-397.5091857910156,-158.49417114257812,51.053611755371094,6.707429885864258,4.967062950134277
31.753570556640625,24.56088638305664,-239.73085021972656,-1.9320755004882812,67.96373748779297,-395.7921142578125,-156.6258544921875,36.07463836669922,5.684118270874023,14.956891059875488
31.742856979370117,29.284133911132812,-241.64486694335938,-0.9660377502441406,66.36096954345703,-396.7762756347656,-157.68548583984375,8.053608894348145,5.707429885864258,22.967063903808594
31.739286422729492,28.3394832611084,-246.42991638183594,-0.9660377502441406,68.81542205810547,-392.98284912109375,-157.64300537109375,-29.953399658203125,1.7151985168457031,25.97045135498047
31.696428298950195,33.0627326965332,-247.3869171142578,-4.830188751220703,67.11214447021484,-396.72601318359375,-157.6352996826172,-56.037513732910156,-1.1915512084960938,23.01114273071289
31.75,34.007381439208984,-248.34393310546875,-6.762264251708984,69.21503448486328,-397.43194580078125,-159.4302520751953,-65.932373046875,-3.308112144470215,14.960281372070312
31.73214340209961,31.173431396484375,-248.34393310546875,-0.9660377502441406,68.76509857177734,-395.7689208984375,-155.58938598632812,-64.96741485595703,-0.2692584991455078,2.9772348403930664
31.742856979370117,33.0627326965332,-246.42991638183594,-4.830188751220703,69.26531982421875,-395.5835876464844,-160.4705810546875,-44.946388244628906,-3.292570114135742,-5.032937049865723
31.72142791748047,34.952030181884766,-247.3869171142578,-4.830188751220703,66.41129302978516,-393.9902038574219,-159.73910522460938,-26.988449096679688,-3.2459449768066406,-12.012591361999512
31.71071434020996,30.228782653808594,-247.3869171142578,-3.8641510009765625,65.81069946289062,-394.1214904785156,-156.83047485351562,-21.009475708007812,-1.222635269165039,-15.002419471740723
31.674999237060547,28.3394832611084,-248.34393310546875,-2.898113250732422,66.46153259277344,-393.07952880859375,-159.76611328125,-19.079572677612305,1.8550739288330078,-9.968510627746582
31.725000381469727,31.173431396484375,-250.25794982910156,-7.728302001953125,71.06884002685547,-394.7075500488281,-155.46583557128906,-14.981436729431152,0.7462825775146484,-0.01598358154296875
31.696428298950195,33.0627326965332,-248.34393310546875,-3.8641510009765625,68.61457061767578,-394.7501525878906,-159.56150817871094,-9.037514686584473,-4.191551208496094,9.011143684387207
31.72142791748047,34.952030181884766,-249.3009490966797,-6.762264251708984,69.81549835205078,-400.1137390136719,-159.2989959716797,-0.9884490966796875,-11.24594497680664,14.987408638000488
31.746429443359375,34.007381439208984,-248.34393310546875,-4.830188751220703,69.36570739746094,-395.6376037597656,-158.49803161621094,4.06062126159668,-15.30034351348877,15.963671684265137
31.689285278320312,32.118080139160156,-249.3009490966797,-1.9320755004882812,70.06658935546875,-397.4357604980469,-157.4075164794922,-2.0515336990356445,-17.176010131835938,13.017925262451172
31.75,30.228782653808594,-248.34393310546875,-4.830188751220703,65.45919036865234,-397.6831359863281,-159.68121337890625,-1.9323711395263672,-20.30811309814453,11.960281372070312
31.717857360839844,32.118080139160156,-252.17196655273438,-4.830188751220703,67.91354370117188,-395.7651062011719,-157.61212158203125,0.004543304443359375,-22.238176345825195,9.990797996520996
31.760713577270508,30.228782653808594,-251.2149658203125,-7.728302001953125,67.06190490722656,-397.63671875,-157.6082763671875,3.088655471801758,-25.3314208984375,2.9501094818115234
31.707141876220703,27.394834518432617,-250.25794982910156,-1.9320755004882812,67.9135971069336,-394.827392578125,-158.62542724609375,8.983511924743652,-31.214862823486328,-3.999028205871582
31.71071434020996,30.228782653808594,-244.51589965820312,-0.9660377502441406,66.26054382324219,-397.659912109375,-158.64474487304688,-2.0094757080078125,-36.222633361816406,-8.002419471740723
31.735713958740234,29.284133911132812,-243.5588836669922,0.0,66.96148681640625,-398.52032470703125,-158.56753540039062,-13.960410118103027,-41.27703094482422,-8.026154518127441
31.66428565979004,28.3394832611084,-245.472900390625,0.0,67.66259002685547,-395.6300048828125,-162.5435028076172,-30.100597381591797,-45.12161636352539,-8.958338737487793
31.717857360839844,28.3394832611084,-248.34393310546875,-3.8641510009765625,69.9662094116211,-397.3817138671875,-159.38006591796875,-52.99545669555664,-40.23817443847656,-11.009202003479004
31.714284896850586,31.173431396484375,-250.25794982910156,-9.660377502441406,64.65792083740234,-395.8309631347656,-162.7442626953125,-53.00246810913086,-35.230403900146484,-15.00580883026123
31.707141876220703,32.118080139160156,-250.25794982910156,-9.660377502441406,65.50946044921875,-395.83477783203125,-160.72152709960938,-21.01648712158203,-30.214862823486328,-16.999027252197266
31.717857360839844,30.228782653808594,-249.3009490966797,-4.830188751220703,68.36339569091797,-399.30352783203125,-159.42640686035156,10.004542350769043,-26.238176345825195,-15.009202003479004
31.764286041259766,32.118080139160156,-250.25794982910156,-4.830188751220703,66.16020965576172,-396.6681823730469,-161.63058471679688,22.09566879272461,-24.339195251464844,-14.053282737731934
31.774999618530273,31.173431396484375,-247.3869171142578,-5.796226501464844,66.31086730957031,-394.8738708496094,-160.6983642578125,16.116695404052734,-18.362506866455078,-14.063453674316406
31.72142791748047,31.173431396484375,-247.3869171142578,-2.898113250732422,68.66476440429688,-394.77716064453125,-158.5752410888672,7.0115509033203125,-12.24594497680664,-10.012591361999512
31.742856979370117,30.228782653808594,-246.42991638183594,-5.796226501464844,69.96624755859375,-396.44403076171875,-160.39337158203125,3.0536088943481445,-12.292570114135742,-8.032937049865723
31.72142791748047,31.173431396484375,-246.42991638183594,-1.9320755004882812,66.31072998046875,-397.68695068359375,-157.65846252441406,-0.9884490966796875,-12.24594497680664,-13.012591361999512
31.714284896850586,33.0627326965332,-248.34393310546875,-3.8641510009765625,67.66250610351562,-397.5054016113281,-160.5169219970703,-6.002468109130859,-16.230403900146484,-19.005809783935547
31.73214340209961,30.228782653808594,-248.34393310546875,-4.830188751220703,68.36343383789062,-398.3658447265625,-160.43971252441406,-21.967418670654297,-20.26926040649414,-23.02276611328125
31.707141876220703,31.173431396484375,-249.3009490966797,-6.762264251708984,67.96382904052734,-393.9167175292969,-158.65245056152344,-34.01648712158203,-21.214862823486328,-21.999027252197266
31.760713577270508,33.0627326965332,-248.34393310546875,-6.762264251708984,66.86119079589844,-396.5909118652344,-162.56668090820312,-25.91134262084961,-23.3314208984375,-19.04989242553711
31.707141876220703,33.0627326965332,-248.34393310546875,-7.728302001953125,70.0164794921875,-395.5333557128906,-160.42039489746094,-8.016487121582031,-20.214862823486328,-15.999028205871582
31.757143020629883,32.118080139160156,-247.3869171142578,-9.660377502441406,67.01176452636719,-396.6719665527344,-159.60784912109375,-2.9183521270751953,-15.323653221130371,-16.04650115966797
31.739286422729492,32.118080139160156,-249.3009490966797,-9.660377502441406,67.71269989013672,-397.53240966796875,-159.5306396484375,-5.953398704528809,-9.284801483154297,-14.029546737670898
31.764286041259766,31.173431396484375,-248.34393310546875,-10.626415252685547,64.55744171142578,-397.6523132324219,-162.6902313232422,-5.904333114624023,-5.339195251464844,-10.053282737731934
31.674999237060547,34.007381439208984,-248.34393310546875,-8.694339752197266,67.81321716308594,-394.77337646484375,-160.5979766845703,4.920427322387695,-14.144927024841309,-5.96851110458374
31.739286422729492,32.118080139160156,-246.42991638183594,-3.8641510009765625,67.01176452636719,-396.6719665527344,-159.60784912109375,8.046601295471191,-15.284801483154297,-3.0295467376708984
31.696428298950195,30.228782653808594,-247.3869171142578,-8.694339752197266,68.31324768066406,-398.33880615234375,-161.4259796142578,8.962485313415527,-10.191551208496094,-1.988856315612793
31.760713577270508,32.118080139160156,-245.472900390625,-7.728302001953125,66.26054382324219,-397.659912109375,-158.64474487304688,1.0886554718017578,-1.3314218521118164,-7.049890518188477
31.742856979370117,32.118080139160156,-247.3869171142578,-6.762264251708984,68.31328582763672,-397.401123046875,-162.43927001953125,5.0536088943481445,2.707429885864258,-14.032937049865723
31.78928565979004,30.228782653808594,-251.2149658203125,-7.728302001953125,65.55970764160156,-394.9241027832031,-160.74855041503906,11.144732475280762,0.6064109802246094,-18.07701873779297
31.739286422729492,28.3394832611084,-250.25794982910156,-9.660377502441406,69.86573028564453,-399.20306396484375,-159.32601928710938,19.046600341796875,-4.284801483154297,-24.02954864501953
31.746429443359375,31.173431396484375,-249.3009490966797,-7.728302001953125,68.36347961425781,-397.4281311035156,-161.4530029296875,28.060623168945312,-7.3003435134887695,-23.036327362060547
31.742856979370117,31.173431396484375,-248.34393310546875,-9.660377502441406,70.11686706542969,-395.5873718261719,-158.44784545898438,31.053611755371094,-3.292570114135742,-17.032936096191406
31.73214340209961,31.173431396484375,-245.472900390625,-4.830188751220703,65.5094223022461,-396.7724609375,-159.70822143554688,34.03258514404297,4.730741500854492,-10.022765159606934
31.76785659790039,28.3394832611084,-244.51589965820312,-6.762264251708984,69.36560821533203,-397.51300048828125,-156.471435546875,21.102676391601562,11.653036117553711,-5.056672096252441
31.774999618530273,28.3394832611084,-246.42991638183594,-5.796226501464844,67.96382904052734,-393.9167175292969,-158.65245056152344,-9.883305549621582,14.637495040893555,0.9365463256835938
31.714284896850586,29.284133911132812,-250.25794982910156,-6.762264251708984,68.6144790649414,-396.62554931640625,-157.534912109375,-34.00246810913086,14.769596099853516,3.994190216064453
31.685714721679688,33.0627326965332,-253.1289825439453,-5.796226501464844,67.61231994628906,-397.4783630371094,-161.50318908691406,-38.05854034423828,10.831758499145508,1.021315574645996
31.678571701049805,30.228782653808594,-250.25794982910156,-3.8641510009765625,67.81312561035156,-396.64874267578125,-158.57139587402344,-21.072561264038086,6.847299575805664,-9.971902847290039
31.703571319580078,34.007381439208984,-250.25794982910156,-5.796226501464844,67.76302337646484,-394.746337890625,-161.58424377441406,10.9765043258667,5.792905807495117,-21.99563980102539
31.725000381469727,32.118080139160156,-248.34393310546875,-6.762264251708984,68.61457061767578,-394.7501525878906,-159.56150817871094,35.01856231689453,14.746282577514648,-28.01598358154297
31.739286422729492,31.173431396484375,-247.3869171142578,-7.728302001953125,67.11219787597656,-395.788330078125,-158.6486053466797,42.046600341796875,27.715200424194336,-30.02954864501953
31.700000762939453,31.173431396484375,-243.5588836669922,-2.898113250732422,67.61222076416016,-399.353759765625,-159.47659301757812,43.96949768066406,34.80067443847656,-25.99224853515625
31.796428680419922,29.284133911132812,-245.472900390625,-4.830188751220703,70.06663513183594,-396.498046875,-158.4208221435547,43.15875244140625,32.59086608886719,-19.083797454833984
31.774999618530273,28.3394832611084,-244.51589965820312,-2.898113250732422,70.01644134521484,-396.4710388183594,-159.40708923339844,25.116695404052734,28.637495040893555,-10.063453674316406
31.625,31.173431396484375,-246.42991638183594,0.9660377502441406,70.06663513183594,-396.498046875,-158.4208221435547,-1.177703857421875,20.9638614654541,-5.9210405349731445
31.717857360839844,31.173431396484375,-251.2149658203125,0.9660377502441406,71.61921691894531,-395.4869079589844,-158.3474578857422,-19.99545669555664,9.761823654174805,-6.009201526641846
31.764286041259766,32.118080139160156,-254.0859832763672,-5.796226501464844,70.96842193603516,-395.5911865234375,-156.4250946044922,-21.904333114624023,7.660804748535156,-14.053282737731934
31.689285278320312,34.007381439208984,-253.1289825439453,-2.898113250732422,69.26527404785156,-396.5212707519531,-159.457275390625,8.948466300964355,9.823989868164062,-23.982074737548828
31.700000762939453,32.118080139160156,-250.25794982910156,-4.830188751220703,68.66476440429688,-394.77716064453125,-158.5752410888672,49.96949768066406,9.800676345825195,-29.99224853515625
31.69285774230957,33.0627326965332,-244.51589965820312,-5.796226501464844,67.76289367675781,-397.5594177246094,-158.54437255859375,70.95548248291016,16.81621742248535,-26.98546600341797
31.703571319580078,34.007381439208984,-239.73085021972656,-6.762264251708984,69.16476440429688,-399.2803039550781,-158.38995361328125,82.97650909423828,21.792905807495117,-16.99563980102539
31.77857208251953,31.173431396484375,-240.68785095214844,0.0,71.01860809326172,-395.61822509765625,-155.43881225585938,66.12371063232422,16.62972068786621,-6.066845417022705
31.753570556640625,31.173431396484375,-240.68785095214844,-3.8641510009765625,70.91818237304688,-396.5018615722656,-156.3980712890625,31.07463836669922,6.684118270874023,-0.043108463287353516
31.75,34.007381439208984,-244.51589965820312,-1.9320755004882812,70.21729278564453,-394.7037353515625,-157.48858642578125,-16.932371139526367,-2.308112144470215,1.9602813720703125
31.66428565979004,31.173431396484375,-246.42991638183594,0.9660377502441406,69.26531982421875,-395.5835876464844,-160.4705810546875,-47.1005973815918,-10.12161636352539,-1.9583392143249512
31.657142639160156,32.118080139160156,-249.3009490966797,0.0,67.96373748779297,-395.7921142578125,-156.6258544921875,-48.11461639404297,-20.106075286865234,-8.951558113098145
31.75,33.0627326965332,-247.3869171142578,-0.9660377502441406,70.76760864257812,-396.4208068847656,-159.35690307617188,-36.932369232177734,-22.30811309814453,-15.039717674255371
31.75,34.007381439208984,-249.3009490966797,-1.9320755004882812,68.56429290771484,-396.5985107421875,-158.5211944580078,-12.932371139526367,-19.30811309814453,-18.039718627929688
31.73214340209961,34.952030181884766,-248.34393310546875,-5.796226501464844,70.01644134521484,-396.4710388183594,-159.40708923339844,14.03258228302002,-11.269259452819824,-19.02276611328125
31.739286422729492,35.89667892456055,-242.6018829345703,-4.830188751220703,69.51627349853516,-395.71868896484375,-155.53919982910156,34.046600341796875,1.7151985168457031,-18.02954864501953
31.73214340209961,31.173431396484375,-243.5588836669922,0.0,72.42061614990234,-394.5260009765625,-158.3242950439453,46.03258514404297,5.730741500854492,-15.022765159606934
31.735713958740234,32.118080139160156,-243.5588836669922,-2.898113250732422,71.66930389404297,-397.38934326171875,-155.33457946777344,40.039588928222656,5.722970962524414,-10.026154518127441
31.714284896850586,31.173431396484375,-242.6018829345703,-3.8641510009765625,69.4660873413086,-395.691650390625,-156.52548217773438,24.99753189086914,3.7695960998535156,-5.005809783935547
31.696428298950195,30.228782653808594,-245.472900390625,0.9660377502441406,68.71495056152344,-394.80419921875,-157.58895874023438,1.9624853134155273,-2.1915512084960938,1.011143684387207
31.717857360839844,33.0627326965332,-249.3009490966797,-2.898113250732422,73.12145233154297,-397.2618408203125,-156.22048950195312,-12.99545669555664,-12.238176345825195,4.990798473358154
31.703571319580078,35.89667892456055,-250.25794982910156,-2.898113250732422,68.11430358886719,-395.8731689453125,-153.66702270507812,-13.023494720458984,-16.20709228515625,3.004362106323242
31.700000762939453,34.952030181884766,-248.34393310546875,-3.8641510009765625,70.1669692993164,-397.48980712890625,-155.43496704101562,-0.030503273010253906,-12.199324607849121,-7.992247581481934
31.69285774230957,33.0627326965332,-246.42991638183594,-7.728302001953125,70.91822814941406,-395.5641784667969,-157.41136169433594,12.955477714538574,-8.183782577514648,-13.985466957092285
31.753570556640625,32.118080139160156,-246.42991638183594,-5.796226501464844,70.31767272949219,-394.7577819824219,-155.51602172851562,12.074637413024902,-0.31588172912597656,-13.043108940124512
31.760713577270508,33.0627326965332,-246.42991638183594,-2.898113250732422,70.21729278564453,-394.7037353515625,-157.48858642578125,8.088656425476074,2.668577194213867,-8.049890518188477
31.73214340209961,33.0627326965332,-246.42991638183594,-5.796226501464844,70.91822814941406,-395.5641784667969,-157.41136169433594,10.03258228302002,-2.269259452819824,0.9772348403930664
31.707141876220703,34.007381439208984,-246.42991638183594,-4.830188751220703,71.71949768066406,-397.4163513183594,-154.3483123779297,2.9835128784179688,-9.214861869812012,12.000971794128418
31.735713958740234,35.89667892456055,-247.3869171142578,-1.9320755004882812,68.6144790649414,-396.62554931640625,-157.534912109375,5.039589881896973,-12.277029037475586,16.973846435546875
31.742856979370117,34.007381439208984,-249.3009490966797,-2.898113250732422,70.81780242919922,-396.44781494140625,-158.37063598632812,8.053608894348145,-12.292570114135742,10.967062950134277
31.700000762939453,32.118080139160156,-248.34393310546875,-1.9320755004882812,67.86331176757812,-396.67578125,-157.58511352539062,2.969496726989746,-3.199324607849121,3.007751941680908
31.735713958740234,33.0627326965332,-249.3009490966797,0.0,70.21724700927734,-395.64141845703125,-156.4752960205078,7.039589881896973,3.722970962524414,-5.0261549949646
31.746429443359375,28.3394832611084,-246.42991638183594,-2.898113250732422,70.11678314208984,-397.4627685546875,-156.42124938964844,19.060623168945312,5.699655532836914,-9.036328315734863
31.685714721679688,29.284133911132812,-245.472900390625,-2.898113250732422,72.47061920166016,-398.3038330078125,-153.28482055664062,30.94145965576172,3.831758499145508,-4.978684425354004
31.671428680419922,33.0627326965332,-243.5588836669922,-4.830188751220703,70.01640319824219,-397.4087219238281,-158.393798828125,22.913421630859375,1.8628425598144531,2.034878730773926
31.72142791748047,34.007381439208984,-243.5588836669922,-1.9320755004882812,70.81771087646484,-398.3232116699219,-156.3440399169922,7.0115509033203125,0.7540550231933594,7.987408638000488
31.76785659790039,34.007381439208984,-243.5588836669922,-2.898113250732422,67.11209869384766,-397.6637268066406,-156.62200927734375,-2.897324562072754,3.653036117553711,7.943327903747559
31.689285278320312,34.007381439208984,-248.34393310546875,-5.796226501464844,68.6646728515625,-396.6525573730469,-156.54864501953125,-16.051532745361328,5.8239898681640625,2.017925262451172
31.75,34.007381439208984,-250.25794982910156,-4.830188751220703,71.66940307617188,-395.5139465332031,-157.36117553710938,-30.932369232177734,11.691888809204102,-3.0397186279296875
31.707141876220703,34.952030181884766,-251.2149658203125,-4.830188751220703,70.71728515625,-399.2068786621094,-157.30328369140625,-29.01648712158203,10.785139083862305,-7.999028205871582
31.72142791748047,34.007381439208984,-246.42991638183594,-3.8641510009765625,68.71495056152344,-394.80419921875,-157.58895874023438,-19.988449096679688,9.75405502319336,-8.012591361999512
31.69285774230957,33.0627326965332,-243.5588836669922,-0.9660377502441406,70.01640319824219,-397.4087219238281,-158.393798828125,-13.044522285461426,5.816217422485352,-6.985466957092285
31.65357208251953,30.228782653808594,-244.51589965820312,-1.9320755004882812,70.06658935546875,-397.4357604980469,-157.4075164794922,-19.121627807617188,4.901693344116211,-2.9481678009033203
31.700000762939453,32.118080139160156,-245.472900390625,-5.796226501464844,69.26518249511719,-398.39666748046875,-157.43067932128906,-36.03050231933594,7.800676345825195,-1.9922480583190918
31.746429443359375,31.173431396484375,-250.25794982910156,-3.8641510009765625,68.513916015625,-400.3222961425781,-155.45428466796875,-36.93937683105469,6.699655532836914,-0.036328792572021484
31.64642906188965,34.007381439208984,-251.2149658203125,-8.694339752197266,73.8725814819336,-398.1493225097656,-155.15699768066406,-21.13564682006836,1.917236328125,-1.9413857460021973
31.707141876220703,34.007381439208984,-250.25794982910156,-6.762264251708984,69.31541442871094,-397.4859924316406,-157.45770263671875,11.983511924743652,-0.2148609161376953,-7.999028205871582
31.717857360839844,34.007381439208984,-247.3869171142578,-5.796226501464844,71.56902313232422,-395.45989990234375,-159.33372497558594,39.00454330444336,-2.2381763458251953,-9.009202003479004
31.703571319580078,34.007381439208984,-246.42991638183594,-3.8641510009765625,68.61438751220703,-398.5009460449219,-155.50833129882812,46.976505279541016,-0.2070941925048828,-8.995637893676758
31.76785659790039,32.118080139160156,-244.51589965820312,-1.9320755004882812,70.76760864257812,-396.4208068847656,-159.35690307617188,36.10267639160156,4.653036117553711,-8.056672096252441
31.707141876220703,31.173431396484375,-247.3869171142578,-5.796226501464844,70.96836853027344,-396.5289001464844,-155.41180419921875,7.983511924743652,5.785139083862305,-3.999028205871582
31.757143020629883,32.118080139160156,-245.472900390625,-3.8641510009765625,70.8678970336914,-398.3502502441406,-155.35775756835938,-19.918352127075195,4.676347732543945,-0.046500205993652344
31.714284896850586,31.173431396484375,-247.3869171142578,-3.8641510009765625,69.96611022949219,-399.2571105957031,-157.3534698486328,-39.00246810913086,0.7695960998535156,3.994190216064453
31.746429443359375,34.007381439208984,-248.34393310546875,-2.898113250732422,72.47075653076172,-395.49072265625,-156.32472229003906,-46.93937683105469,-6.3003435134887695,6.9636712074279785
31.674999237060547,32.118080139160156,-249.3009490966797,-3.8641510009765625,68.86565399169922,-392.0721740722656,-157.67001342773438,-41.07957077026367,-4.144927024841309,3.0314888954162598
31.73214340209961,29.284133911132812,-248.34393310546875,-5.796226501464844,70.26748657226562,-394.7307434082031,-156.5023193359375,-21.967418670654297,4.730741500854492,-2.0227651596069336
31.72857093811035,32.118080139160156,-250.25794982910156,-3.8641510009765625,69.9661636352539,-398.31939697265625,-158.3667755126953,9.0255708694458,11.73851203918457,-8.019373893737793
31.685714721679688,31.173431396484375,-248.34393310546875,-4.830188751220703,70.26752471923828,-393.7930603027344,-157.51559448242188,34.94145965576172,20.831758499145508,-8.978684425354004
31.717857360839844,33.0627326965332,-245.472900390625,-2.898113250732422,67.66241455078125,-399.3807678222656,-158.49032592773438,52.00454330444336,18.761823654174805,-3.0092015266418457
31.707141876220703,32.118080139160156,-243.5588836669922,-3.8641510009765625,70.01630401611328,-399.28411865234375,-156.36720275878906,55.98351287841797,22.785139083862305,5.000971794128418
31.73214340209961,33.0627326965332,-244.51589965820312,-3.8641510009765625,70.1670150756836,-396.5520935058594,-156.44827270507812,50.03258514404297,24.730741500854492,13.977234840393066
31.714284896850586,32.118080139160156,-244.51589965820312,-3.8641510009765625,68.01392364501953,-395.81915283203125,-155.6395721435547,35.99753189086914,27.76959800720215,21.994190216064453
31.725000381469727,31.173431396484375,-243.5588836669922,-4.830188751220703,70.11672973632812,-398.4004821777344,-155.40794372558594,23.01856231689453,32.74628448486328,22.98401641845703
31.66428565979004,28.3394832611084,-241.64486694335938,-5.796226501464844,68.61443328857422,-397.563232421875,-156.52163696289062,-4.10059928894043,30.878385543823242,17.04166030883789
31.66428565979004,34.007381439208984,-243.5588836669922,-4.830188751220703,70.41809844970703,-393.8741149902344,-154.55677795410156,-32.1005973815918,26.878385543823242,10.041661262512207
31.703571319580078,34.952030181884766,-244.51589965820312,-4.830188751220703,70.71733093261719,-398.2691650390625,-158.31658935546875,-65.02349853515625,25.792905807495117,0.0043621063232421875
31.73214340209961,31.173431396484375,-247.3869171142578,-0.9660377502441406,68.76505279541016,-396.70660400390625,-154.5760955810547,-86.96741485595703,22.730741500854492,-10.022765159606934
31.707141876220703,30.228782653808594,-250.25794982910156,0.0,70.81788635253906,-394.57244873046875,-160.397216796875,-102.01648712158203,19.785139083862305,-18.999027252197266
31.76785659790039,25.505535125732422,-253.1289825439453,-5.796226501464844,70.71733093261719,-398.2691650390625,-158.31658935546875,-96.89732360839844,17.65303611755371,-19.056671142578125
31.77142906188965,30.228782653808594,-258.87103271484375,-8.694339752197266,70.76760864257812,-396.4208068847656,-159.35690307617188,-63.89031219482422,19.645261764526367,-8.060063362121582
31.739286422729492,34.007381439208984,-261.7420654296875,-10.626415252685547,69.3657455444336,-394.6999206542969,-159.51132202148438,-5.953398704528809,25.715200424194336,2.9704532623291016
31.714284896850586,33.0627326965332,-255.04299926757812,-7.728302001953125,67.71265411376953,-398.4700927734375,-158.51734924316406,47.99753189086914,35.76959991455078,7.994190216064453
31.72857093811035,34.007381439208984,-249.3009490966797,-4.830188751220703,70.91818237304688,-396.5018615722656,-156.3980712890625,65.02557373046875,39.73851013183594,14.980626106262207
31.746429443359375,31.173431396484375,-245.472900390625,-4.830188751220703,70.91818237304688,-396.5018615722656,-156.3980712890625,57.06062316894531,39.69965362548828,21.963672637939453
31.689285278320312,31.173431396484375,-242.6018829345703,1.9320755004882812,70.71733093261719,-398.2691650390625,-158.31658935546875,30.948467254638672,33.82398986816406,27.017925262451172
31.742856979370117,32.118080139160156,-242.6018829345703,0.9660377502441406,69.46612548828125,-394.75396728515625,-157.5387725830078,-1.9463911056518555,25.707429885864258,22.967063903808594
31.714284896850586,33.0627326965332,-246.42991638183594,3.8641510009765625,71.46854400634766,-397.28125,-159.27967834472656,-29.00246810913086,10.769596099853516,15.994190216064453
31.739286422729492,32.118080139160156,-249.3009490966797,-1.9320755004882812,71.82010650634766,-392.78192138671875,-157.44223022460938,-42.953399658203125,-3.284801483154297,-1.0295467376708984
31.725000381469727,31.173431396484375,-250.25794982910156,0.0,71.51882934570312,-395.4328918457031,-160.32000732421875,-46.98143768310547,-9.253718376159668,-24.01598358154297
31.72857093811035,32.118080139160156,-248.34393310546875,-0.9660377502441406,69.91596984863281,-398.2923889160156,-159.35304260253906,-34.974430084228516,-5.261487007141113,-36.01937484741211
31.774999618530273,29.284133911132812,-246.42991638183594,-0.9660377502441406,72.32014465332031,-396.34735107421875,-158.27024841308594,-16.883304595947266,-4.362505912780762,-41.063453674316406
31.746429443359375,32.118080139160156,-248.34393310546875,-1.9320755004882812,68.46385955810547,-397.482177734375,-159.48043823242188,-4.93937873840332,-4.3003435134887695,-42.03633117675781
31.72142791748047,32.118080139160156,-250.25794982910156,-3.8641510009765625,72.37042236328125,-394.4989929199219,-159.31056213378906,-9.988449096679688,-6.245944976806641,-39.01259231567383
31.725000381469727,33.0627326965332,-253.1289825439453,-5.796226501464844,70.86798858642578,-396.474853515625,-157.38433837890625,-11.981436729431152,-8.253718376159668,-36.01598358154297
31.746429443359375,34.007381439208984,-253.1289825439453,-6.762264251708984,71.61921691894531,-395.4869079589844,-158.3474578857422,-2.9393787384033203,-2.3003435134887695,-36.03633117675781
31.760713577270508,33.0627326965332,-249.3009490966797,-5.796226501464844,69.9662094116211,-397.3817138671875,-159.38006591796875,20.08865737915039,2.668577194213867,-34.04989242553711
31.73214340209961,34.007381439208984,-250.25794982910156,-0.9660377502441406,70.8177490234375,-397.3855285644531,-157.35733032226562,44.03258514404297,8.730741500854492,-28.02276611328125
31.75,33.0627326965332,-250.25794982910156,-6.762264251708984,73.17163848876953,-397.28887939453125,-155.2342071533203,51.067630767822266,16.6918888092041,-24.039718627929688
31.72142791748047,33.0627326965332,-246.42991638183594,-5.796226501464844,73.72205352783203,-397.1305236816406,-159.12911987304688,37.01155090332031,18.754056930541992,-25.012592315673828
31.657142639160156,30.228782653808594,-244.51589965820312,0.9660377502441406,72.97084045410156,-398.11846923828125,-158.166015625,18.885379791259766,19.8939266204834,-24.951557159423828
31.742856979370117,29.284133911132812,-244.51589965820312,-2.898113250732422,72.26991271972656,-397.2580261230469,-158.24322509765625,-10.946391105651855,15.707429885864258,-24.032936096191406
31.72857093811035,32.118080139160156,-247.3869171142578,-5.796226501464844,72.57127380371094,-392.731689453125,-157.3920440673828,-39.974430084228516,6.73851203918457,-26.01937484741211
31.739286422729492,34.952030181884766,-248.34393310546875,-6.762264251708984,73.0713119506836,-396.297119140625,-158.22006225585938,-47.953399658203125,2.715198516845703,-31.02954864501953
31.714284896850586,36.84132766723633,-248.34393310546875,-8.694339752197266,73.92295837402344,-394.425537109375,-158.22390747070312,-43.00246810913086,3.7695960998535156,-33.00580978393555
31.703571319580078,33.0627326965332,-245.472900390625,-7.728302001953125,75.47557067871094,-392.4766845703125,-159.16383361816406,-35.023494720458984,12.792905807495117,-31.99563980102539
31.703571319580078,30.228782653808594,-243.5588836669922,-3.8641510009765625,74.72431182861328,-394.4023132324219,-157.18743896484375,-19.023494720458984,16.792905807495117,-26.99563980102539
31.717857360839844,32.118080139160156,-245.472900390625,-3.8641510009765625,72.26998901367188,-395.3826599121094,-160.2698211669922,-15.99545669555664,12.761823654174805,-20.009201049804688
31.73214340209961,34.952030181884766,-246.42991638183594,-4.830188751220703,74.02337646484375,-393.5418701171875,-157.2646484375,-19.967418670654297,6.730741500854492,-17.02276611328125
31.739286422729492,35.89667892456055,-247.3869171142578,-2.898113250732422,72.42061614990234,-394.5260009765625,-158.3242950439453,-23.953399658203125,-2.284801483154297,-16.02954864501953
31.68214225769043,35.89667892456055,-245.472900390625,-5.796226501464844,75.42529296875,-394.3250427246094,-158.12353515625,-25.0655517578125,-7.160468101501465,-18.975292205810547
31.68214225769043,34.952030181884766,-246.42991638183594,-6.762264251708984,73.17163848876953,-397.28887939453125,-155.2342071533203,-18.0655517578125,-6.160468101501465,-20.975292205810547
31.66071319580078,34.007381439208984,-245.472900390625,-4.830188751220703,73.17182159423828,-393.5380859375,-159.28738403320312,-3.1076107025146484,-0.11384391784667969,-20.95494842529297
31.68214225769043,32.118080139160156,-243.5588836669922,-10.626415252685547,75.27458190917969,-397.05706787109375,-158.04246520996094,1.9344472885131836,7.839532852172852,-17.975292205810547
31.739286422729492,34.007381439208984,-245.472900390625,-6.762264251708984,74.52342224121094,-397.1072998046875,-158.0926513671875,-2.9533987045288086,11.715198516845703,-16.02954864501953
31.77857208251953,32.118080139160156,-246.42991638183594,-2.898113250732422,74.62384033203125,-396.2236633300781,-157.13339233398438,-1.8762941360473633,7.629720687866211,-10.066845893859863
31.725000381469727,31.173431396484375,-247.3869171142578,0.9660377502441406,75.2244873046875,-395.1546630859375,-161.05532836914062,-11.981436729431152,-3.253718376159668,-6.015983581542969
31.72857093811035,33.0627326965332,-249.3009490966797,-1.9320755004882812,74.47318267822266,-398.0179748535156,-158.06564331054688,-20.974430084228516,-9.261487007141113,-5.019373416900635
31.725000381469727,34.952030181884766,-248.34393310546875,-1.9320755004882812,73.72210693359375,-396.19287109375,-160.1424102783203,-17.98143768310547,-11.253718376159668,-6.015983581542969
31.78571319580078,34.007381439208984,-244.51589965820312,-1.9320755004882812,75.3750991821289,-394.29803466796875,-159.10980224609375,-8.86227798461914,-14.385815620422363,-8.073625564575195
31.700000762939453,34.007381439208984,-243.5588836669922,-2.898113250732422,74.52336883544922,-398.0450134277344,-157.079345703125,-6.030503273010254,-12.199324607849121,-5.992248058319092
31.73214340209961,31.173431396484375,-241.64486694335938,-4.830188751220703,72.32009887695312,-397.2850646972656,-157.25694274902344,-7.9674177169799805,-6.269259452819824,-4.022765159606934
31.678571701049805,33.0627326965332,-244.51589965820312,-6.762264251708984,76.72686767578125,-394.11651611328125,-161.96824645996094,-15.072561264038086,-2.1526994705200195,0.028097152709960938
31.707141876220703,34.007381439208984,-246.42991638183594,-4.830188751220703,72.82035827636719,-396.1620178222656,-163.15142822265625,-26.01648712158203,-4.214861869812012,5.000971794128418
31.735713958740234,35.89667892456055,-246.42991638183594,-3.8641510009765625,73.9229965209961,-393.4878234863281,-159.23719787597656,-32.960411071777344,-6.277029037475586,1.9738450050354004
31.739286422729492,36.84132766723633,-247.3869171142578,-2.898113250732422,73.17182159423828,-393.5380859375,-159.28738403320312,-38.953399658203125,-11.284801483154297,-5.029546737670898
31.735713958740234,34.007381439208984,-249.3009490966797,-3.8641510009765625,75.27462768554688,-396.119384765625,-159.05575561523438,-43.960411071777344,-15.277029037475586,-8.026154518127441
31.678571701049805,34.007381439208984,-249.3009490966797,-4.830188751220703,73.27225494384766,-392.6544189453125,-158.32814025878906,-35.07255935668945,-15.15269947052002,-9.971902847290039
31.689285278320312,34.007381439208984,-250.25794982910156,-7.728302001953125,73.62171936035156,-396.1388244628906,-162.11495971679688,-22.051532745361328,-13.176010131835938,-6.982074737548828
31.700000762939453,34.007381439208984,-247.3869171142578,-5.796226501464844,70.86808013916016,-394.5994567871094,-159.4109344482422,-11.030503273010254,-5.199324607849121,-8.992247581481934
31.739286422729492,34.952030181884766,-246.42991638183594,-3.8641510009765625,74.52355194091797,-394.2942199707031,-161.13253784179688,1.0466012954711914,-1.2848014831542969,-3.0295467376708984
31.696428298950195,34.007381439208984,-242.6018829345703,-1.9320755004882812,75.27467346191406,-395.18170166015625,-160.06906127929688,-8.037514686584473,-4.191551208496094,6.011143684387207
31.73214340209961,33.0627326965332,-243.5588836669922,-4.830188751220703,73.87276458740234,-394.3985290527344,-159.21017456054688,-31.967418670654297,-9.269259452819824,8.977234840393066
31.696428298950195,33.0627326965332,-246.42991638183594,-2.898113250732422,74.6240234375,-392.4728698730469,-161.18658447265625,-41.037513732910156,-21.191551208496094,9.011143684387207
31.671428680419922,34.952030181884766,-249.3009490966797,-5.796226501464844,75.22452545166016,-394.21697998046875,-162.06863403320312,-52.086578369140625,-25.137157440185547,1.0348787307739258
31.707141876220703,34.952030181884766,-252.17196655273438,-9.660377502441406,75.2244873046875,-395.1546630859375,-161.05532836914062,-53.01648712158203,-21.214862823486328,-9.999028205871582
31.72857093811035,34.007381439208984,-250.25794982910156,-8.694339752197266,73.82261657714844,-393.43377685546875,-161.20974731445312,-27.974430084228516,-15.261487007141113,-21.01937484741211
31.746429443359375,34.952030181884766,-248.34393310546875,-7.728302001953125,73.02120971679688,-394.39471435546875,-161.23291015625,11.060622215270996,-13.30034351348877,-21.036327362060547
31.739286422729492,34.007381439208984,-247.3869171142578,-9.660377502441406,72.16957092285156,-396.26629638671875,-161.22906494140625,32.046600341796875,-10.284801483154297,-7.029546737670898
31.621429443359375,34.007381439208984,-248.34393310546875,-10.626415252685547,72.37051391601562,-392.62359619140625,-161.33714294433594,34.81528854370117,-4.028369903564453,9.08234977722168
31.739286422729492,34.007381439208984,-247.3869171142578,-12.558490753173828,72.16960906982422,-395.32861328125,-162.24237060546875,18.046600341796875,4.715198516845703,16.9704532623291
31.757143020629883,34.952030181884766,-245.472900390625,-11.592453002929688,73.62167358398438,-397.07647705078125,-161.10165405273438,2.0816478729248047,7.676347732543945,14.953499794006348
31.73214340209961,34.952030181884766,-244.51589965820312,-5.796226501464844,71.61925506591797,-394.5492248535156,-159.36074829101562,-4.9674177169799805,0.7307415008544922,11.977234840393066
31.753570556640625,34.952030181884766,-247.3869171142578,-5.796226501464844,72.16966247558594,-394.3908996582031,-163.2556610107422,-4.925363540649414,-9.31588077545166,6.9568915367126465
31.667858123779297,34.952030181884766,-247.3869171142578,-6.762264251708984,73.02116394042969,-395.3324279785156,-160.21963500976562,-2.093587875366211,-16.1293888092041,2.03826904296875
31.742856979370117,29.284133911132812,-245.472900390625,-0.9660377502441406,74.42298889160156,-397.990966796875,-159.05191040039062,-1.9463911056518555,-14.292570114135742,-4.032937049865723
31.703571319580078,30.228782653808594,-242.6018829345703,2.898113250732422,71.36830139160156,-394.41412353515625,-164.29212951660156,-10.023494720458984,-7.207093238830566,-5.995637893676758
31.735713958740234,29.284133911132812,-246.42991638183594,0.0,74.42317199707031,-394.24017333984375,-163.10508728027344,-15.960410118103027,-5.277029037475586,-4.0261549949646
31.73214340209961,30.228782653808594,-246.42991638183594,-1.9320755004882812,73.8225326538086,-395.3091735839844,-159.1831512451172,-14.96741771697998,-10.269259452819824,-0.022765159606933594
31.66428565979004,35.89667892456055,-246.42991638183594,-8.694339752197266,75.42533111572266,-393.3873596191406,-159.13681030273438,-32.1005973815918,-15.12161636352539,5.041660785675049
31.71071434020996,34.952030181884766,-247.3869171142578,-6.762264251708984,72.37055206298828,-391.6859130859375,-162.35044860839844,-40.00947570800781,-12.222635269165039,10.997580528259277
31.72857093811035,38.730628967285156,-251.2149658203125,-7.728302001953125,71.46868133544922,-394.4681701660156,-162.319580078125,-26.974430084228516,-2.2614870071411133,15.980626106262207
31.72857093811035,37.785980224609375,-251.2149658203125,-8.694339752197266,72.37051391601562,-392.62359619140625,-161.33714294433594,-19.974430084228516,9.73851203918457,15.980626106262207
31.742856979370117,37.785980224609375,-249.3009490966797,-9.660377502441406,73.27225494384766,-392.6544189453125,-158.32814025878906,2.0536088943481445,17.707429885864258,10.967062950134277
31.674999237060547,34.952030181884766,-245.472900390625,-7.728302001953125,73.8729476928711,-390.6477355957031,-163.2633514404297,22.920429229736328,15.855073928833008,9.031488418579102
31.742856979370117,34.952030181884766,-243.5588836669922,-4.830188751220703,74.47331237792969,-395.20489501953125,-161.1055145263672,19.053607940673828,8.707429885864258,9.967062950134277
31.71071434020996,34.952030181884766,-242.6018829345703,-0.9660377502441406,72.66973876953125,-397.0186462402344,-165.09695434570312,-3.0094757080078125,1.777364730834961,10.997580528259277
31.639286041259766,34.007381439208984,-238.77383422851562,-4.830188751220703,72.16957092285156,-396.26629638671875,-161.22906494140625,-42.14966583251953,-12.067222595214844,6.065395832061768
31.71071434020996,34.952030181884766,-241.64486694335938,-7.728302001953125,73.82261657714844,-393.43377685546875,-161.20974731445312,-81.00947570800781,-27.22263526916504,-0.0024199485778808594
31.71071434020996,37.785980224609375,-244.51589965820312,-3.8641510009765625,74.52359008789062,-393.3565368652344,-162.14584350585938,-104.00947570800781,-41.222633361816406,-3.002419948577881
31.717857360839844,34.007381439208984,-246.42991638183594,-4.830188751220703,72.97110748291016,-392.4923095703125,-164.24578857421875,-104.99545288085938,-46.23817443847656,-16.009201049804688
31.703571319580078,34.007381439208984,-248.34393310546875,-6.762264251708984,75.0739974975586,-393.1982116699219,-166.04074096679688,-101.02349090576172,-45.20709228515625,-26.99563980102539
31.68214225769043,36.84132766723633,-252.17196655273438,-8.694339752197266,72.87063598632812,-394.31365966796875,-164.19174194335938,-84.0655517578125,-36.16046905517578,-34.97529220581055
31.717857360839844,36.84132766723633,-254.0859832763672,-10.626415252685547,72.97110748291016,-392.4923095703125,-164.24578857421875,-38.99545669555664,-28.238176345825195,-29.009201049804688
31.725000381469727,36.84132766723633,-251.2149658203125,-12.558490753173828,73.07157897949219,-390.67095947265625,-164.29983520507812,28.01856231689453,-22.253719329833984,-21.01598358154297
31.71071434020996,32.118080139160156,-248.34393310546875,-10.626415252685547,74.47349548339844,-391.4541015625,-165.15869140625,40.99052429199219,-12.222635269165039,-12.002419471740723
31.717857360839844,32.118080139160156,-245.472900390625,-8.694339752197266,72.92086791992188,-393.4029846191406,-164.21876525878906,32.00454330444336,-3.2381763458251953,-5.009201526641846
31.725000381469727,32.118080139160156,-244.51589965820312,-6.762264251708984,74.42321014404297,-393.302490234375,-164.11839294433594,16.01856231689453,-7.253718376159668,3.9840164184570312
31.735713958740234,35.89667892456055,-246.42991638183594,-6.762264251708984,73.57162475585938,-394.23638916015625,-165.12782287597656,-4.960410118103027,-18.277029037475586,6.9738450050354
31.657142639160156,36.84132766723633,-247.3869171142578,-6.762264251708984,73.57162475585938,-394.23638916015625,-165.12782287597656,-37.114620208740234,-23.106075286865234,0.04844236373901367
31.72142791748047,34.952030181884766,-249.3009490966797,-10.626415252685547,71.36834716796875,-393.4764099121094,-165.305419921875,-61.98844909667969,-26.24594497680664,-13.012591361999512
31.73214340209961,33.0627326965332,-248.34393310546875,-8.694339752197266,72.7200698852539,-394.23260498046875,-167.1505584716797,-47.96741485595703,-21.26926040649414,-23.02276611328125
31.703571319580078,32.118080139160156,-249.3009490966797,-12.558490753173828,73.77242279052734,-393.4067687988281,-162.19602966308594,-24.023494720458984,-12.207093238830566,-25.99563980102539
31.678571701049805,34.007381439208984,-246.42991638183594,-11.592453002929688,74.62406158447266,-391.5351867675781,-162.1998748779297,-12.072561264038086,-3.1526994705200195,-24.971904754638672
31.774999618530273,34.007381439208984,-248.34393310546875,-12.558490753173828,70.71768951416016,-390.7676086425781,-166.42294311523438,-17.883304595947266,-0.3625049591064453,-15.06345272064209
31.714284896850586,33.0627326965332,-247.3869171142578,-11.592453002929688,72.01904296875,-395.2475280761719,-165.20118713378906,-21.00246810913086,-1.2304039001464844,-7.005809783935547
31.65357208251953,34.007381439208984,-248.34393310546875,-12.558490753173828,74.222412109375,-394.1321105957031,-167.05018615722656,-18.121627807617188,-5.098305702209473,0.05183219909667969
31.735713958740234,33.0627326965332,-246.42991638183594,-6.762264251708984,72.1697006225586,-393.4532165527344,-164.26895141601562,-9.960410118103027,-11.277029037475586,-0.02615499496459961
31.72142791748047,33.0627326965332,-245.472900390625,-7.728302001953125,72.92101287841797,-390.58990478515625,-167.25865173339844,-12.988449096679688,-9.24594497680664,-6.012591361999512
31.714284896850586,34.952030181884766,-247.3869171142578,-6.762264251708984,72.06937408447266,-392.46148681640625,-167.25479125976562,-23.00246810913086,-5.230403900146484,-14.005809783935547
31.625,37.785980224609375,-248.34393310546875,-11.592453002929688,73.42105102539062,-394.15533447265625,-168.08665466308594,-25.177703857421875,1.9638614654541016,-17.921039581298828
31.746429443359375,35.89667892456055,-249.3009490966797,-11.592453002929688,73.72228240966797,-392.44207763671875,-164.1956024169922,-7.93937873840332,-0.30034446716308594,-18.036327362060547
31.742856979370117,35.89667892456055,-245.472900390625,-9.660377502441406,74.22232055664062,-396.0074768066406,-165.02359008789062,8.053608894348145,-0.2925701141357422,-16.032936096191406
31.68214225769043,33.0627326965332,-248.34393310546875,-10.626415252685547,72.72002410888672,-395.1702880859375,-166.13726806640625,6.934447288513184,-1.1604681015014648,-16.975292205810547
31.739286422729492,31.173431396484375,-247.3869171142578,-10.626415252685547,74.22235870361328,-395.0697937011719,-166.03689575195312,-6.953398704528809,3.715198516845703,-24.02954864501953
31.69285774230957,34.007381439208984,-247.3869171142578,-11.592453002929688,73.6219482421875,-391.4503173828125,-167.1814422607422,-17.04452133178711,7.816217422485352,-23.98546600341797
31.703571319580078,33.0627326965332,-248.34393310546875,-7.728302001953125,75.0739974975586,-393.1982116699219,-166.04074096679688,-14.023494720458984,1.7929058074951172,-18.99563980102539
31.72142791748047,37.785980224609375,-249.3009490966797,-9.660377502441406,74.523681640625,-391.48114013671875,-164.17242431640625,-1.9884490966796875,-3.2459449768066406,-12.012591361999512
31.753570556640625,32.118080139160156,-249.3009490966797,-9.660377502441406,74.32292175292969,-391.373046875,-168.11752319335938,-1.925363540649414,-8.31588077545166,-11.043108940124512
31.742856979370117,34.007381439208984,-249.3009490966797,-6.762264251708984,73.52152252197266,-392.333984375,-168.1407012939453,-17.946392059326172,-8.292570114135742,-12.032937049865723
31.71071434020996,35.89667892456055,-249.3009490966797,-7.728302001953125,76.02607727050781,-390.4429626464844,-165.0853271484375,-22.009475708007812,-5.222635269165039,-15.002419471740723
31.72857093811035,35.89667892456055,-246.42991638183594,-11.592453002929688,72.8707275390625,-392.4382629394531,-166.2183380126953,-5.974429130554199,-6.261487007141113,-17.01937484741211
31.739286422729492,34.952030181884766,-248.34393310546875,-10.626415252685547,73.77256774902344,-390.59368896484375,-165.23590087890625,15.046601295471191,-5.284801483154297,-18.02954864501953
31.689285278320312,35.89667892456055,-243.5588836669922,-9.660377502441406,72.1196060180664,-391.5508117675781,-167.2818145751953,14.948466300964355,-2.1760101318359375,-19.982074737548828
31.73214340209961,34.952030181884766,-243.5588836669922,-9.660377502441406,75.27484893798828,-391.430908203125,-164.1222381591797,0.03258228302001953,-0.2692584991455078,-21.02276611328125
31.68214225769043,34.007381439208984,-240.68785095214844,-8.694339752197266,74.42330169677734,-391.4270935058594,-166.1449737548828,-19.0655517578125,-3.160468101501465,-16.975292205810547
31.667858123779297,34.007381439208984,-241.64486694335938,-5.796226501464844,75.5239028930664,-395.7989501953125,-168.86831665039062,-41.09358596801758,-13.129388809204102,-9.96173095703125
31.689285278320312,33.0627326965332,-244.51589965820312,-4.830188751220703,72.669921875,-393.26788330078125,-169.15013122558594,-57.05153274536133,-20.176010131835938,-5.982074737548828
31.700000762939453,36.84132766723633,-248.34393310546875,-6.762264251708984,75.02385711669922,-392.2334899902344,-168.04031372070312,-61.03050231933594,-24.199325561523438,-9.992247581481934
31.739286422729492,35.89667892456055,-249.3009490966797,-7.728302001953125,72.92101287841797,-390.58990478515625,-167.25865173339844,-51.953399658203125,-27.284801483154297,-21.02954864501953
31.764286041259766,35.89667892456055,-250.25794982910156,-12.558490753173828,74.42330169677734,-391.4270935058594,-166.1449737548828,-23.904333114624023,-27.339195251464844,-30.05328369140625
31.717857360839844,34.952030181884766,-246.42991638183594,-14.49056625366211,72.8707275390625,-392.4382629394531,-166.2183380126953,7.004543304443359,-20.238176345825195,-33.00920104980469
31.73214340209961,37.785980224609375,-244.51589965820312,-15.45660400390625,72.82044982910156,-394.28662109375,-165.17800903320312,40.03258514404297,-12.269259452819824,-26.02276611328125
31.64642906188965,34.952030181884766,-243.5588836669922,-14.49056625366211,75.72479248046875,-393.09393310546875,-167.96310424804688,52.864356994628906,-4.082763671875,-12.941386222839355
31.735713958740234,34.007381439208984,-241.64486694335938,-11.592453002929688,75.02385711669922,-392.2334899902344,-168.04031372070312,44.039588928222656,-2.277029037475586,1.9738450050354004
31.674999237060547,33.0627326965332,-243.5588836669922,-5.796226501464844,73.62185668945312,-393.32568359375,-165.15484619140625,28.920429229736328,-2.1449270248413086,9.031488418579102
31.72142791748047,34.007381439208984,-247.3869171142578,-8.694339752197266,75.72479248046875,-393.09393310546875,-167.96310424804688,0.0115509033203125,-7.245944976806641,8.987408638000488
31.689285278320312,34.007381439208984,-249.3009490966797,-7.728302001953125,76.62662506103516,-391.2493896484375,-166.98068237304688,-24.051532745361328,-17.176010131835938,5.017925262451172
31.717857360839844,37.785980224609375,-249.3009490966797,-5.796226501464844,75.8753662109375,-393.17498779296875,-165.0042724609375,-22.99545669555664,-30.238176345825195,1.9907984733581543
